success,timeout,failed_images,failed_audio,failed_video,trial_type,trial_index,time_elapsed,internal_node_id,run_id,condition,recorded_at,source_code_version,ip,user_agent,device,browser,browser_version,platform,platform_version,referer,accept_language,sona_id,ID,view_history,rt,typeoftrial,stimulus,response,sentence,novel1,novel2,novel3,correct,cue,target,type,prime,relatedness,correct_key,block_number,question_order
TRUE,FALSE,[],[],[],preload,0,1130,0.0-0.0,52,1,11/28/23 22:50,50853196e778b5ff033c04a66adaecea,139.140.221.234,"Mozilla/5.0 (Macintosh; Intel Mac OS X 10_15_7) AppleWebKit/537.36 (KHTML, like Gecko) Chrome/119.0.0.0 Safari/537.36",Macintosh,Chrome,119.0.0.0,OS X,10_15_7,https://dgbhklbplk.cognition.run/?sona_id=13111,"en-US,en;q=0.9",13111,416778381,,,,,,,,,,,,,,,,,,
,,,,,instructions,1,31962,0.0-1.0,52,1,11/28/23 22:50,50853196e778b5ff033c04a66adaecea,139.140.221.234,"Mozilla/5.0 (Macintosh; Intel Mac OS X 10_15_7) AppleWebKit/537.36 (KHTML, like Gecko) Chrome/119.0.0.0 Safari/537.36",Macintosh,Chrome,119.0.0.0,OS X,10_15_7,https://dgbhklbplk.cognition.run/?sona_id=13111,"en-US,en;q=0.9",13111,416778381,"[{""page_index"":0,""viewing_time"":16204},{""page_index"":1,""viewing_time"":11918},{""page_index"":2,""viewing_time"":2707}]",30829,instructions,,,,,,,,,,,,,,,
,,,,,html-keyboard-response,2,36847,0.0-2.0-0.0-0.0,52,1,11/28/23 22:50,50853196e778b5ff033c04a66adaecea,139.140.221.234,"Mozilla/5.0 (Macintosh; Intel Mac OS X 10_15_7) AppleWebKit/537.36 (KHTML, like Gecko) Chrome/119.0.0.0 Safari/537.36",Macintosh,Chrome,119.0.0.0,OS X,10_15_7,https://dgbhklbplk.cognition.run/?sona_id=13111,"en-US,en;q=0.9",13111,416778381,,4882,sentence,I took a lot of photos of a geck I saw., ,I took a lot of photos of a geck I saw.,dodish,geck,NOT_FOUND,,,,,,,,,
,,,,,html-keyboard-response,3,40336,0.0-2.0-0.0-0.1,52,1,11/28/23 22:50,50853196e778b5ff033c04a66adaecea,139.140.221.234,"Mozilla/5.0 (Macintosh; Intel Mac OS X 10_15_7) AppleWebKit/537.36 (KHTML, like Gecko) Chrome/119.0.0.0 Safari/537.36",Macintosh,Chrome,119.0.0.0,OS X,10_15_7,https://dgbhklbplk.cognition.run/?sona_id=13111,"en-US,en;q=0.9",13111,416778381,,3488,sentence,I would love to see a dodish horse., ,I would love to see a dodish horse.,dodish,NOT_FOUND,NOT_FOUND,,,,,,,,,
,,,,,html-keyboard-response,4,44090,0.0-2.0-0.0-0.2,52,1,11/28/23 22:50,50853196e778b5ff033c04a66adaecea,139.140.221.234,"Mozilla/5.0 (Macintosh; Intel Mac OS X 10_15_7) AppleWebKit/537.36 (KHTML, like Gecko) Chrome/119.0.0.0 Safari/537.36",Macintosh,Chrome,119.0.0.0,OS X,10_15_7,https://dgbhklbplk.cognition.run/?sona_id=13111,"en-US,en;q=0.9",13111,416778381,,3753,sentence,"At the end of day one, I was tired and just hoped to see a geck.", ,"At the end of day one, I was tired and just hoped to see a geck.",dodish,geck,NOT_FOUND,,,,,,,,,
,,,,,html-keyboard-response,5,46191,0.0-2.0-0.0-0.3,52,1,11/28/23 22:50,50853196e778b5ff033c04a66adaecea,139.140.221.234,"Mozilla/5.0 (Macintosh; Intel Mac OS X 10_15_7) AppleWebKit/537.36 (KHTML, like Gecko) Chrome/119.0.0.0 Safari/537.36",Macintosh,Chrome,119.0.0.0,OS X,10_15_7,https://dgbhklbplk.cognition.run/?sona_id=13111,"en-US,en;q=0.9",13111,416778381,,2100,sentence,You never know with a dodish horse., ,You never know with a dodish horse.,dodish,NOT_FOUND,NOT_FOUND,,,,,,,,,
,,,,,html-keyboard-response,6,51199,0.0-2.0-0.0-0.4,52,1,11/28/23 22:50,50853196e778b5ff033c04a66adaecea,139.140.221.234,"Mozilla/5.0 (Macintosh; Intel Mac OS X 10_15_7) AppleWebKit/537.36 (KHTML, like Gecko) Chrome/119.0.0.0 Safari/537.36",Macintosh,Chrome,119.0.0.0,OS X,10_15_7,https://dgbhklbplk.cognition.run/?sona_id=13111,"en-US,en;q=0.9",13111,416778381,,null,sentence,I went to Zimziland because I heard you can get a foobly apple there.,null,I went to Zimziland because I heard you can get a foobly apple there.,foobly,Zimziland,NOT_FOUND,,,,,,,,,
,,,,,html-keyboard-response,7,53556,0.0-2.0-0.0-0.5,52,1,11/28/23 22:50,50853196e778b5ff033c04a66adaecea,139.140.221.234,"Mozilla/5.0 (Macintosh; Intel Mac OS X 10_15_7) AppleWebKit/537.36 (KHTML, like Gecko) Chrome/119.0.0.0 Safari/537.36",Macintosh,Chrome,119.0.0.0,OS X,10_15_7,https://dgbhklbplk.cognition.run/?sona_id=13111,"en-US,en;q=0.9",13111,416778381,,2355,sentence,I hadn't seen a dodish horse for hours., ,I hadn't seen a dodish horse for hours.,dodish,NOT_FOUND,NOT_FOUND,,,,,,,,,
,,,,,html-keyboard-response,8,56030,0.0-2.0-0.0-0.6,52,1,11/28/23 22:50,50853196e778b5ff033c04a66adaecea,139.140.221.234,"Mozilla/5.0 (Macintosh; Intel Mac OS X 10_15_7) AppleWebKit/537.36 (KHTML, like Gecko) Chrome/119.0.0.0 Safari/537.36",Macintosh,Chrome,119.0.0.0,OS X,10_15_7,https://dgbhklbplk.cognition.run/?sona_id=13111,"en-US,en;q=0.9",13111,416778381,,2472,sentence,"As soon as I arrived, I noticed a foobly apple.", ,"As soon as I arrived, I noticed a foobly apple.",foobly,NOT_FOUND,NOT_FOUND,,,,,,,,,
,,,,,survey-text,9,63381,0.0-2.0-0.0-1.6-0.6,52,1,11/28/23 22:50,50853196e778b5ff033c04a66adaecea,139.140.221.234,"Mozilla/5.0 (Macintosh; Intel Mac OS X 10_15_7) AppleWebKit/537.36 (KHTML, like Gecko) Chrome/119.0.0.0 Safari/537.36",Macintosh,Chrome,119.0.0.0,OS X,10_15_7,https://dgbhklbplk.cognition.run/?sona_id=13111,"en-US,en;q=0.9",13111,416778381,,7346,attention,,foobly,,foobly,NOT_FOUND,NOT_FOUND,1,,,,,,,,
,,,,,html-keyboard-response,10,65289,0.0-2.0-0.0-0.7,52,1,11/28/23 22:50,50853196e778b5ff033c04a66adaecea,139.140.221.234,"Mozilla/5.0 (Macintosh; Intel Mac OS X 10_15_7) AppleWebKit/537.36 (KHTML, like Gecko) Chrome/119.0.0.0 Safari/537.36",Macintosh,Chrome,119.0.0.0,OS X,10_15_7,https://dgbhklbplk.cognition.run/?sona_id=13111,"en-US,en;q=0.9",13111,416778381,,1905,sentence,"On the eleventh day of my trip, I found a dodish horse.", ,"On the eleventh day of my trip, I found a dodish horse.",dodish,NOT_FOUND,NOT_FOUND,,,,,,,,,
,,,,,html-keyboard-response,11,68228,0.0-2.0-0.0-0.8,52,1,11/28/23 22:50,50853196e778b5ff033c04a66adaecea,139.140.221.234,"Mozilla/5.0 (Macintosh; Intel Mac OS X 10_15_7) AppleWebKit/537.36 (KHTML, like Gecko) Chrome/119.0.0.0 Safari/537.36",Macintosh,Chrome,119.0.0.0,OS X,10_15_7,https://dgbhklbplk.cognition.run/?sona_id=13111,"en-US,en;q=0.9",13111,416778381,,2937,sentence,There was a mipp just a few steps from here., ,There was a mipp just a few steps from here.,mipp,NOT_FOUND,NOT_FOUND,,,,,,,,,
,,,,,html-keyboard-response,12,69787,0.0-2.0-0.0-0.9,52,1,11/28/23 22:50,50853196e778b5ff033c04a66adaecea,139.140.221.234,"Mozilla/5.0 (Macintosh; Intel Mac OS X 10_15_7) AppleWebKit/537.36 (KHTML, like Gecko) Chrome/119.0.0.0 Safari/537.36",Macintosh,Chrome,119.0.0.0,OS X,10_15_7,https://dgbhklbplk.cognition.run/?sona_id=13111,"en-US,en;q=0.9",13111,416778381,,1557,sentence,I didn't find a mipp., ,I didn't find a mipp.,mipp,NOT_FOUND,NOT_FOUND,,,,,,,,,
,,,,,html-keyboard-response,13,72908,0.0-2.0-0.0-0.10,52,1,11/28/23 22:50,50853196e778b5ff033c04a66adaecea,139.140.221.234,"Mozilla/5.0 (Macintosh; Intel Mac OS X 10_15_7) AppleWebKit/537.36 (KHTML, like Gecko) Chrome/119.0.0.0 Safari/537.36",Macintosh,Chrome,119.0.0.0,OS X,10_15_7,https://dgbhklbplk.cognition.run/?sona_id=13111,"en-US,en;q=0.9",13111,416778381,,3119,sentence,The people I met there told me they saw a foobly apple that day., ,The people I met there told me they saw a foobly apple that day.,foobly,NOT_FOUND,NOT_FOUND,,,,,,,,,
,,,,,html-keyboard-response,14,75180,0.0-2.0-0.0-0.11,52,1,11/28/23 22:50,50853196e778b5ff033c04a66adaecea,139.140.221.234,"Mozilla/5.0 (Macintosh; Intel Mac OS X 10_15_7) AppleWebKit/537.36 (KHTML, like Gecko) Chrome/119.0.0.0 Safari/537.36",Macintosh,Chrome,119.0.0.0,OS X,10_15_7,https://dgbhklbplk.cognition.run/?sona_id=13111,"en-US,en;q=0.9",13111,416778381,,2271,sentence,My sister told me you can get a mipp there., ,My sister told me you can get a mipp there.,mipp,NOT_FOUND,NOT_FOUND,,,,,,,,,
,,,,,html-keyboard-response,15,77890,0.0-2.0-0.0-0.12,52,1,11/28/23 22:50,50853196e778b5ff033c04a66adaecea,139.140.221.234,"Mozilla/5.0 (Macintosh; Intel Mac OS X 10_15_7) AppleWebKit/537.36 (KHTML, like Gecko) Chrome/119.0.0.0 Safari/537.36",Macintosh,Chrome,119.0.0.0,OS X,10_15_7,https://dgbhklbplk.cognition.run/?sona_id=13111,"en-US,en;q=0.9",13111,416778381,,2709,sentence,"In the end, I brought a geck home.", ,"In the end, I brought a geck home.",dodish,geck,NOT_FOUND,,,,,,,,,
,,,,,html-keyboard-response,16,80547,0.0-2.0-0.0-0.13,52,1,11/28/23 22:50,50853196e778b5ff033c04a66adaecea,139.140.221.234,"Mozilla/5.0 (Macintosh; Intel Mac OS X 10_15_7) AppleWebKit/537.36 (KHTML, like Gecko) Chrome/119.0.0.0 Safari/537.36",Macintosh,Chrome,119.0.0.0,OS X,10_15_7,https://dgbhklbplk.cognition.run/?sona_id=13111,"en-US,en;q=0.9",13111,416778381,,2655,sentence,I also love to have a mipp., ,I also love to have a mipp.,mipp,NOT_FOUND,NOT_FOUND,,,,,,,,,
,,,,,html-keyboard-response,17,83314,0.0-2.0-0.0-0.14,52,1,11/28/23 22:50,50853196e778b5ff033c04a66adaecea,139.140.221.234,"Mozilla/5.0 (Macintosh; Intel Mac OS X 10_15_7) AppleWebKit/537.36 (KHTML, like Gecko) Chrome/119.0.0.0 Safari/537.36",Macintosh,Chrome,119.0.0.0,OS X,10_15_7,https://dgbhklbplk.cognition.run/?sona_id=13111,"en-US,en;q=0.9",13111,416778381,,2766,sentence,"She offered me a dodish horse, too.", ,"She offered me a dodish horse, too.",dodish,NOT_FOUND,NOT_FOUND,,,,,,,,,
,,,,,html-keyboard-response,18,85074,0.0-2.0-0.0-0.15,52,1,11/28/23 22:50,50853196e778b5ff033c04a66adaecea,139.140.221.234,"Mozilla/5.0 (Macintosh; Intel Mac OS X 10_15_7) AppleWebKit/537.36 (KHTML, like Gecko) Chrome/119.0.0.0 Safari/537.36",Macintosh,Chrome,119.0.0.0,OS X,10_15_7,https://dgbhklbplk.cognition.run/?sona_id=13111,"en-US,en;q=0.9",13111,416778381,,1758,sentence,I'm a geck fan!, ,I'm a geck fan!,dodish,geck,NOT_FOUND,,,,,,,,,
,,,,,html-keyboard-response,19,87746,0.0-2.0-0.0-0.16,52,1,11/28/23 22:50,50853196e778b5ff033c04a66adaecea,139.140.221.234,"Mozilla/5.0 (Macintosh; Intel Mac OS X 10_15_7) AppleWebKit/537.36 (KHTML, like Gecko) Chrome/119.0.0.0 Safari/537.36",Macintosh,Chrome,119.0.0.0,OS X,10_15_7,https://dgbhklbplk.cognition.run/?sona_id=13111,"en-US,en;q=0.9",13111,416778381,,2671,sentence,Everybody would like to have a geck., ,Everybody would like to have a geck.,dodish,geck,NOT_FOUND,,,,,,,,,
,,,,,html-keyboard-response,20,89808,0.0-2.0-0.0-0.17,52,1,11/28/23 22:50,50853196e778b5ff033c04a66adaecea,139.140.221.234,"Mozilla/5.0 (Macintosh; Intel Mac OS X 10_15_7) AppleWebKit/537.36 (KHTML, like Gecko) Chrome/119.0.0.0 Safari/537.36",Macintosh,Chrome,119.0.0.0,OS X,10_15_7,https://dgbhklbplk.cognition.run/?sona_id=13111,"en-US,en;q=0.9",13111,416778381,,2059,sentence,Maybe I would prefer a foobly apple., ,Maybe I would prefer a foobly apple.,foobly,NOT_FOUND,NOT_FOUND,,,,,,,,,
,,,,,html-keyboard-response,21,91733,0.0-2.0-0.0-0.18,52,1,11/28/23 22:50,50853196e778b5ff033c04a66adaecea,139.140.221.234,"Mozilla/5.0 (Macintosh; Intel Mac OS X 10_15_7) AppleWebKit/537.36 (KHTML, like Gecko) Chrome/119.0.0.0 Safari/537.36",Macintosh,Chrome,119.0.0.0,OS X,10_15_7,https://dgbhklbplk.cognition.run/?sona_id=13111,"en-US,en;q=0.9",13111,416778381,,1923,sentence,I am not sure if I would like a dodish horse better., ,I am not sure if I would like a dodish horse better.,dodish,NOT_FOUND,NOT_FOUND,,,,,,,,,
,,,,,html-keyboard-response,22,95147,0.0-2.0-0.0-0.19,52,1,11/28/23 22:50,50853196e778b5ff033c04a66adaecea,139.140.221.234,"Mozilla/5.0 (Macintosh; Intel Mac OS X 10_15_7) AppleWebKit/537.36 (KHTML, like Gecko) Chrome/119.0.0.0 Safari/537.36",Macintosh,Chrome,119.0.0.0,OS X,10_15_7,https://dgbhklbplk.cognition.run/?sona_id=13111,"en-US,en;q=0.9",13111,416778381,,3413,sentence,Everybody I met in Zimziland would love to have a foobly apple., ,Everybody I met in Zimziland would love to have a foobly apple.,foobly,Zimziland,NOT_FOUND,,,,,,,,,
,,,,,survey-text,23,100462,0.0-2.0-0.0-1.19-0.19,52,1,11/28/23 22:50,50853196e778b5ff033c04a66adaecea,139.140.221.234,"Mozilla/5.0 (Macintosh; Intel Mac OS X 10_15_7) AppleWebKit/537.36 (KHTML, like Gecko) Chrome/119.0.0.0 Safari/537.36",Macintosh,Chrome,119.0.0.0,OS X,10_15_7,https://dgbhklbplk.cognition.run/?sona_id=13111,"en-US,en;q=0.9",13111,416778381,,5311,attention,,foobly,,foobly,Zimziland,NOT_FOUND,1,,,,,,,,
,,,,,html-keyboard-response,24,102133,0.0-2.0-0.0-0.20,52,1,11/28/23 22:50,50853196e778b5ff033c04a66adaecea,139.140.221.234,"Mozilla/5.0 (Macintosh; Intel Mac OS X 10_15_7) AppleWebKit/537.36 (KHTML, like Gecko) Chrome/119.0.0.0 Safari/537.36",Macintosh,Chrome,119.0.0.0,OS X,10_15_7,https://dgbhklbplk.cognition.run/?sona_id=13111,"en-US,en;q=0.9",13111,416778381,,1669,sentence,There are people who prefer a dodish horse., ,There are people who prefer a dodish horse.,dodish,NOT_FOUND,NOT_FOUND,,,,,,,,,
,,,,,html-keyboard-response,25,103812,0.0-2.0-0.0-0.21,52,1,11/28/23 22:50,50853196e778b5ff033c04a66adaecea,139.140.221.234,"Mozilla/5.0 (Macintosh; Intel Mac OS X 10_15_7) AppleWebKit/537.36 (KHTML, like Gecko) Chrome/119.0.0.0 Safari/537.36",Macintosh,Chrome,119.0.0.0,OS X,10_15_7,https://dgbhklbplk.cognition.run/?sona_id=13111,"en-US,en;q=0.9",13111,416778381,,1676,sentence,"On the second day, I saw a mipp.", ,"On the second day, I saw a mipp.",mipp,NOT_FOUND,NOT_FOUND,,,,,,,,,
,,,,,html-keyboard-response,26,105719,0.0-2.0-0.0-0.22,52,1,11/28/23 22:50,50853196e778b5ff033c04a66adaecea,139.140.221.234,"Mozilla/5.0 (Macintosh; Intel Mac OS X 10_15_7) AppleWebKit/537.36 (KHTML, like Gecko) Chrome/119.0.0.0 Safari/537.36",Macintosh,Chrome,119.0.0.0,OS X,10_15_7,https://dgbhklbplk.cognition.run/?sona_id=13111,"en-US,en;q=0.9",13111,416778381,,1905,sentence,I have a picture of a dodish horse., ,I have a picture of a dodish horse.,dodish,NOT_FOUND,NOT_FOUND,,,,,,,,,
,,,,,html-keyboard-response,27,108108,0.0-2.0-0.0-0.23,52,1,11/28/23 22:50,50853196e778b5ff033c04a66adaecea,139.140.221.234,"Mozilla/5.0 (Macintosh; Intel Mac OS X 10_15_7) AppleWebKit/537.36 (KHTML, like Gecko) Chrome/119.0.0.0 Safari/537.36",Macintosh,Chrome,119.0.0.0,OS X,10_15_7,https://dgbhklbplk.cognition.run/?sona_id=13111,"en-US,en;q=0.9",13111,416778381,,2387,sentence,I wished that they at least would have a geck., ,I wished that they at least would have a geck.,dodish,geck,NOT_FOUND,,,,,,,,,
,,,,,html-keyboard-response,28,110035,0.0-2.0-0.0-0.24,52,1,11/28/23 22:50,50853196e778b5ff033c04a66adaecea,139.140.221.234,"Mozilla/5.0 (Macintosh; Intel Mac OS X 10_15_7) AppleWebKit/537.36 (KHTML, like Gecko) Chrome/119.0.0.0 Safari/537.36",Macintosh,Chrome,119.0.0.0,OS X,10_15_7,https://dgbhklbplk.cognition.run/?sona_id=13111,"en-US,en;q=0.9",13111,416778381,,1925,sentence,One lady offered me a foobly apple., ,One lady offered me a foobly apple.,foobly,NOT_FOUND,NOT_FOUND,,,,,,,,,
,,,,,html-keyboard-response,29,114070,0.0-2.0-0.0-0.25,52,1,11/28/23 22:50,50853196e778b5ff033c04a66adaecea,139.140.221.234,"Mozilla/5.0 (Macintosh; Intel Mac OS X 10_15_7) AppleWebKit/537.36 (KHTML, like Gecko) Chrome/119.0.0.0 Safari/537.36",Macintosh,Chrome,119.0.0.0,OS X,10_15_7,https://dgbhklbplk.cognition.run/?sona_id=13111,"en-US,en;q=0.9",13111,416778381,,4034,sentence,I went to a place where it's easy to find a foobly apple., ,I went to a place where it's easy to find a foobly apple.,foobly,NOT_FOUND,NOT_FOUND,,,,,,,,,
,,,,,html-keyboard-response,30,116007,0.0-2.0-0.0-0.26,52,1,11/28/23 22:50,50853196e778b5ff033c04a66adaecea,139.140.221.234,"Mozilla/5.0 (Macintosh; Intel Mac OS X 10_15_7) AppleWebKit/537.36 (KHTML, like Gecko) Chrome/119.0.0.0 Safari/537.36",Macintosh,Chrome,119.0.0.0,OS X,10_15_7,https://dgbhklbplk.cognition.run/?sona_id=13111,"en-US,en;q=0.9",13111,416778381,,1934,sentence,I only found a dodish horse., ,I only found a dodish horse.,dodish,NOT_FOUND,NOT_FOUND,,,,,,,,,
,,,,,html-keyboard-response,31,118111,0.0-2.0-0.0-0.27,52,1,11/28/23 22:50,50853196e778b5ff033c04a66adaecea,139.140.221.234,"Mozilla/5.0 (Macintosh; Intel Mac OS X 10_15_7) AppleWebKit/537.36 (KHTML, like Gecko) Chrome/119.0.0.0 Safari/537.36",Macintosh,Chrome,119.0.0.0,OS X,10_15_7,https://dgbhklbplk.cognition.run/?sona_id=13111,"en-US,en;q=0.9",13111,416778381,,2102,sentence,"There is no doubt, a dodish horse is the best!", ,"There is no doubt, a dodish horse is the best!",dodish,NOT_FOUND,NOT_FOUND,,,,,,,,,
,,,,,html-keyboard-response,32,120658,0.0-2.0-0.0-0.28,52,1,11/28/23 22:50,50853196e778b5ff033c04a66adaecea,139.140.221.234,"Mozilla/5.0 (Macintosh; Intel Mac OS X 10_15_7) AppleWebKit/537.36 (KHTML, like Gecko) Chrome/119.0.0.0 Safari/537.36",Macintosh,Chrome,119.0.0.0,OS X,10_15_7,https://dgbhklbplk.cognition.run/?sona_id=13111,"en-US,en;q=0.9",13111,416778381,,2546,sentence,My sister doesn't like to have a foobly apple., ,My sister doesn't like to have a foobly apple.,foobly,NOT_FOUND,NOT_FOUND,,,,,,,,,
,,,,,html-keyboard-response,33,123576,0.0-2.0-0.0-0.29,52,1,11/28/23 22:50,50853196e778b5ff033c04a66adaecea,139.140.221.234,"Mozilla/5.0 (Macintosh; Intel Mac OS X 10_15_7) AppleWebKit/537.36 (KHTML, like Gecko) Chrome/119.0.0.0 Safari/537.36",Macintosh,Chrome,119.0.0.0,OS X,10_15_7,https://dgbhklbplk.cognition.run/?sona_id=13111,"en-US,en;q=0.9",13111,416778381,,2916,sentence,I would really love to have a foobly apple., ,I would really love to have a foobly apple.,foobly,NOT_FOUND,NOT_FOUND,,,,,,,,,
,,,,,html-keyboard-response,34,125771,0.0-2.0-0.0-0.30,52,1,11/28/23 22:50,50853196e778b5ff033c04a66adaecea,139.140.221.234,"Mozilla/5.0 (Macintosh; Intel Mac OS X 10_15_7) AppleWebKit/537.36 (KHTML, like Gecko) Chrome/119.0.0.0 Safari/537.36",Macintosh,Chrome,119.0.0.0,OS X,10_15_7,https://dgbhklbplk.cognition.run/?sona_id=13111,"en-US,en;q=0.9",13111,416778381,,2193,sentence,"In the end, I decided I'd go looking for a foobly apple.", ,"In the end, I decided I'd go looking for a foobly apple.",foobly,NOT_FOUND,NOT_FOUND,,,,,,,,,
,,,,,html-keyboard-response,35,128417,0.0-2.0-0.0-0.31,52,1,11/28/23 22:50,50853196e778b5ff033c04a66adaecea,139.140.221.234,"Mozilla/5.0 (Macintosh; Intel Mac OS X 10_15_7) AppleWebKit/537.36 (KHTML, like Gecko) Chrome/119.0.0.0 Safari/537.36",Macintosh,Chrome,119.0.0.0,OS X,10_15_7,https://dgbhklbplk.cognition.run/?sona_id=13111,"en-US,en;q=0.9",13111,416778381,,2644,sentence,It's absolutely amazing to get to see a mipp in person., ,It's absolutely amazing to get to see a mipp in person.,mipp,NOT_FOUND,NOT_FOUND,,,,,,,,,
,,,,,html-keyboard-response,36,130817,0.0-2.0-0.0-0.32,52,1,11/28/23 22:50,50853196e778b5ff033c04a66adaecea,139.140.221.234,"Mozilla/5.0 (Macintosh; Intel Mac OS X 10_15_7) AppleWebKit/537.36 (KHTML, like Gecko) Chrome/119.0.0.0 Safari/537.36",Macintosh,Chrome,119.0.0.0,OS X,10_15_7,https://dgbhklbplk.cognition.run/?sona_id=13111,"en-US,en;q=0.9",13111,416778381,,2398,sentence,Sometimes I wish it were easier to get a mipp., ,Sometimes I wish it were easier to get a mipp.,mipp,NOT_FOUND,NOT_FOUND,,,,,,,,,
,,,,,html-keyboard-response,37,133220,0.0-2.0-0.0-0.33,52,1,11/28/23 22:50,50853196e778b5ff033c04a66adaecea,139.140.221.234,"Mozilla/5.0 (Macintosh; Intel Mac OS X 10_15_7) AppleWebKit/537.36 (KHTML, like Gecko) Chrome/119.0.0.0 Safari/537.36",Macintosh,Chrome,119.0.0.0,OS X,10_15_7,https://dgbhklbplk.cognition.run/?sona_id=13111,"en-US,en;q=0.9",13111,416778381,,2400,sentence,I went out early to look for a geck., ,I went out early to look for a geck.,dodish,geck,NOT_FOUND,,,,,,,,,
,,,,,html-keyboard-response,38,136863,0.0-2.0-0.0-0.34,52,1,11/28/23 22:50,50853196e778b5ff033c04a66adaecea,139.140.221.234,"Mozilla/5.0 (Macintosh; Intel Mac OS X 10_15_7) AppleWebKit/537.36 (KHTML, like Gecko) Chrome/119.0.0.0 Safari/537.36",Macintosh,Chrome,119.0.0.0,OS X,10_15_7,https://dgbhklbplk.cognition.run/?sona_id=13111,"en-US,en;q=0.9",13111,416778381,,3641,sentence,I thought maybe I'd see a mipp on the next day., ,I thought maybe I'd see a mipp on the next day.,mipp,NOT_FOUND,NOT_FOUND,,,,,,,,,
,,,,,html-keyboard-response,39,141870,0.0-2.0-0.0-0.35,52,1,11/28/23 22:50,50853196e778b5ff033c04a66adaecea,139.140.221.234,"Mozilla/5.0 (Macintosh; Intel Mac OS X 10_15_7) AppleWebKit/537.36 (KHTML, like Gecko) Chrome/119.0.0.0 Safari/537.36",Macintosh,Chrome,119.0.0.0,OS X,10_15_7,https://dgbhklbplk.cognition.run/?sona_id=13111,"en-US,en;q=0.9",13111,416778381,,null,sentence,They also said that they would really like to see a geck.,null,They also said that they would really like to see a geck.,dodish,geck,NOT_FOUND,,,,,,,,,
,,,,,survey-text,40,146201,0.0-2.0-0.0-1.35-0.35,52,1,11/28/23 22:50,50853196e778b5ff033c04a66adaecea,139.140.221.234,"Mozilla/5.0 (Macintosh; Intel Mac OS X 10_15_7) AppleWebKit/537.36 (KHTML, like Gecko) Chrome/119.0.0.0 Safari/537.36",Macintosh,Chrome,119.0.0.0,OS X,10_15_7,https://dgbhklbplk.cognition.run/?sona_id=13111,"en-US,en;q=0.9",13111,416778381,,4326,attention,,geck,,dodish,geck,NOT_FOUND,1,,,,,,,,
,,,,,html-keyboard-response,41,149019,0.0-2.0-0.0-0.36,52,1,11/28/23 22:50,50853196e778b5ff033c04a66adaecea,139.140.221.234,"Mozilla/5.0 (Macintosh; Intel Mac OS X 10_15_7) AppleWebKit/537.36 (KHTML, like Gecko) Chrome/119.0.0.0 Safari/537.36",Macintosh,Chrome,119.0.0.0,OS X,10_15_7,https://dgbhklbplk.cognition.run/?sona_id=13111,"en-US,en;q=0.9",13111,416778381,,2817,sentence,I imagined that I would find a mipp in Zimziland., ,I imagined that I would find a mipp in Zimziland.,mipp,Zimziland,NOT_FOUND,,,,,,,,,
,,,,,html-keyboard-response,42,151730,0.0-2.0-0.0-0.37,52,1,11/28/23 22:50,50853196e778b5ff033c04a66adaecea,139.140.221.234,"Mozilla/5.0 (Macintosh; Intel Mac OS X 10_15_7) AppleWebKit/537.36 (KHTML, like Gecko) Chrome/119.0.0.0 Safari/537.36",Macintosh,Chrome,119.0.0.0,OS X,10_15_7,https://dgbhklbplk.cognition.run/?sona_id=13111,"en-US,en;q=0.9",13111,416778381,,2709,sentence,"I stayed there for a couple of days, hoping I would find a geck.", ,"I stayed there for a couple of days, hoping I would find a geck.",dodish,geck,NOT_FOUND,,,,,,,,,
,,,,,html-keyboard-response,43,153304,0.0-2.0-0.0-0.38,52,1,11/28/23 22:50,50853196e778b5ff033c04a66adaecea,139.140.221.234,"Mozilla/5.0 (Macintosh; Intel Mac OS X 10_15_7) AppleWebKit/537.36 (KHTML, like Gecko) Chrome/119.0.0.0 Safari/537.36",Macintosh,Chrome,119.0.0.0,OS X,10_15_7,https://dgbhklbplk.cognition.run/?sona_id=13111,"en-US,en;q=0.9",13111,416778381,,1572,sentence,I would like to have a geck., ,I would like to have a geck.,dodish,geck,NOT_FOUND,,,,,,,,,
,,,,,html-keyboard-response,44,154909,0.0-2.0-0.0-0.39,52,1,11/28/23 22:50,50853196e778b5ff033c04a66adaecea,139.140.221.234,"Mozilla/5.0 (Macintosh; Intel Mac OS X 10_15_7) AppleWebKit/537.36 (KHTML, like Gecko) Chrome/119.0.0.0 Safari/537.36",Macintosh,Chrome,119.0.0.0,OS X,10_15_7,https://dgbhklbplk.cognition.run/?sona_id=13111,"en-US,en;q=0.9",13111,416778381,,1602,sentence,My friend Sally said she saw a mipp once., ,My friend Sally said she saw a mipp once.,mipp,NOT_FOUND,NOT_FOUND,,,,,,,,,
,,,,,instructions,45,156619,0.0-2.0-1.0,52,1,11/28/23 22:50,50853196e778b5ff033c04a66adaecea,139.140.221.234,"Mozilla/5.0 (Macintosh; Intel Mac OS X 10_15_7) AppleWebKit/537.36 (KHTML, like Gecko) Chrome/119.0.0.0 Safari/537.36",Macintosh,Chrome,119.0.0.0,OS X,10_15_7,https://dgbhklbplk.cognition.run/?sona_id=13111,"en-US,en;q=0.9",13111,416778381,"[{""page_index"":0,""viewing_time"":1708}]",1708,instructions,,,,,,,,,,,,,,,
,,,,,html-keyboard-response,46,160004,0.0-2.0-2.0-0.0,52,1,11/28/23 22:50,50853196e778b5ff033c04a66adaecea,139.140.221.234,"Mozilla/5.0 (Macintosh; Intel Mac OS X 10_15_7) AppleWebKit/537.36 (KHTML, like Gecko) Chrome/119.0.0.0 Safari/537.36",Macintosh,Chrome,119.0.0.0,OS X,10_15_7,https://dgbhklbplk.cognition.run/?sona_id=13111,"en-US,en;q=0.9",13111,416778381,,3382,sentence,I went out early to look for a geck., ,I went out early to look for a geck.,dodish,geck,NOT_FOUND,,,,,,,,,
,,,,,html-keyboard-response,47,161975,0.0-2.0-2.0-0.1,52,1,11/28/23 22:50,50853196e778b5ff033c04a66adaecea,139.140.221.234,"Mozilla/5.0 (Macintosh; Intel Mac OS X 10_15_7) AppleWebKit/537.36 (KHTML, like Gecko) Chrome/119.0.0.0 Safari/537.36",Macintosh,Chrome,119.0.0.0,OS X,10_15_7,https://dgbhklbplk.cognition.run/?sona_id=13111,"en-US,en;q=0.9",13111,416778381,,1969,sentence,My sister told me you can get a mipp there., ,My sister told me you can get a mipp there.,mipp,NOT_FOUND,NOT_FOUND,,,,,,,,,
,,,,,html-keyboard-response,48,165056,0.0-2.0-2.0-0.2,52,1,11/28/23 22:50,50853196e778b5ff033c04a66adaecea,139.140.221.234,"Mozilla/5.0 (Macintosh; Intel Mac OS X 10_15_7) AppleWebKit/537.36 (KHTML, like Gecko) Chrome/119.0.0.0 Safari/537.36",Macintosh,Chrome,119.0.0.0,OS X,10_15_7,https://dgbhklbplk.cognition.run/?sona_id=13111,"en-US,en;q=0.9",13111,416778381,,3078,sentence,I thought maybe I'd see a mipp on the next day., ,I thought maybe I'd see a mipp on the next day.,mipp,NOT_FOUND,NOT_FOUND,,,,,,,,,
,,,,,html-keyboard-response,49,167656,0.0-2.0-2.0-0.3,52,1,11/28/23 22:50,50853196e778b5ff033c04a66adaecea,139.140.221.234,"Mozilla/5.0 (Macintosh; Intel Mac OS X 10_15_7) AppleWebKit/537.36 (KHTML, like Gecko) Chrome/119.0.0.0 Safari/537.36",Macintosh,Chrome,119.0.0.0,OS X,10_15_7,https://dgbhklbplk.cognition.run/?sona_id=13111,"en-US,en;q=0.9",13111,416778381,,2597,sentence,I would really love to have a foobly apple., ,I would really love to have a foobly apple.,foobly,NOT_FOUND,NOT_FOUND,,,,,,,,,
,,,,,html-keyboard-response,50,169905,0.0-2.0-2.0-0.4,52,1,11/28/23 22:50,50853196e778b5ff033c04a66adaecea,139.140.221.234,"Mozilla/5.0 (Macintosh; Intel Mac OS X 10_15_7) AppleWebKit/537.36 (KHTML, like Gecko) Chrome/119.0.0.0 Safari/537.36",Macintosh,Chrome,119.0.0.0,OS X,10_15_7,https://dgbhklbplk.cognition.run/?sona_id=13111,"en-US,en;q=0.9",13111,416778381,,2247,sentence,You never know with a dodish horse., ,You never know with a dodish horse.,dodish,NOT_FOUND,NOT_FOUND,,,,,,,,,
,,,,,html-keyboard-response,51,171587,0.0-2.0-2.0-0.5,52,1,11/28/23 22:50,50853196e778b5ff033c04a66adaecea,139.140.221.234,"Mozilla/5.0 (Macintosh; Intel Mac OS X 10_15_7) AppleWebKit/537.36 (KHTML, like Gecko) Chrome/119.0.0.0 Safari/537.36",Macintosh,Chrome,119.0.0.0,OS X,10_15_7,https://dgbhklbplk.cognition.run/?sona_id=13111,"en-US,en;q=0.9",13111,416778381,,1680,sentence,My friend Sally said she saw a mipp once., ,My friend Sally said she saw a mipp once.,mipp,NOT_FOUND,NOT_FOUND,,,,,,,,,
,,,,,html-keyboard-response,52,173082,0.0-2.0-2.0-0.6,52,1,11/28/23 22:50,50853196e778b5ff033c04a66adaecea,139.140.221.234,"Mozilla/5.0 (Macintosh; Intel Mac OS X 10_15_7) AppleWebKit/537.36 (KHTML, like Gecko) Chrome/119.0.0.0 Safari/537.36",Macintosh,Chrome,119.0.0.0,OS X,10_15_7,https://dgbhklbplk.cognition.run/?sona_id=13111,"en-US,en;q=0.9",13111,416778381,,1492,sentence,I also love to have a mipp., ,I also love to have a mipp.,mipp,NOT_FOUND,NOT_FOUND,,,,,,,,,
,,,,,survey-text,53,175385,0.0-2.0-2.0-1.6-0.6,52,1,11/28/23 22:50,50853196e778b5ff033c04a66adaecea,139.140.221.234,"Mozilla/5.0 (Macintosh; Intel Mac OS X 10_15_7) AppleWebKit/537.36 (KHTML, like Gecko) Chrome/119.0.0.0 Safari/537.36",Macintosh,Chrome,119.0.0.0,OS X,10_15_7,https://dgbhklbplk.cognition.run/?sona_id=13111,"en-US,en;q=0.9",13111,416778381,,2299,attention,,mipp,,mipp,NOT_FOUND,NOT_FOUND,1,,,,,,,,
,,,,,html-keyboard-response,54,177245,0.0-2.0-2.0-0.7,52,1,11/28/23 22:50,50853196e778b5ff033c04a66adaecea,139.140.221.234,"Mozilla/5.0 (Macintosh; Intel Mac OS X 10_15_7) AppleWebKit/537.36 (KHTML, like Gecko) Chrome/119.0.0.0 Safari/537.36",Macintosh,Chrome,119.0.0.0,OS X,10_15_7,https://dgbhklbplk.cognition.run/?sona_id=13111,"en-US,en;q=0.9",13111,416778381,,1857,sentence,There was a mipp just a few steps from here., ,There was a mipp just a few steps from here.,mipp,NOT_FOUND,NOT_FOUND,,,,,,,,,
,,,,,html-keyboard-response,55,178928,0.0-2.0-2.0-0.8,52,1,11/28/23 22:50,50853196e778b5ff033c04a66adaecea,139.140.221.234,"Mozilla/5.0 (Macintosh; Intel Mac OS X 10_15_7) AppleWebKit/537.36 (KHTML, like Gecko) Chrome/119.0.0.0 Safari/537.36",Macintosh,Chrome,119.0.0.0,OS X,10_15_7,https://dgbhklbplk.cognition.run/?sona_id=13111,"en-US,en;q=0.9",13111,416778381,,1681,sentence,One lady offered me a foobly apple., ,One lady offered me a foobly apple.,foobly,NOT_FOUND,NOT_FOUND,,,,,,,,,
,,,,,html-keyboard-response,56,180690,0.0-2.0-2.0-0.9,52,1,11/28/23 22:50,50853196e778b5ff033c04a66adaecea,139.140.221.234,"Mozilla/5.0 (Macintosh; Intel Mac OS X 10_15_7) AppleWebKit/537.36 (KHTML, like Gecko) Chrome/119.0.0.0 Safari/537.36",Macintosh,Chrome,119.0.0.0,OS X,10_15_7,https://dgbhklbplk.cognition.run/?sona_id=13111,"en-US,en;q=0.9",13111,416778381,,1758,sentence,I would love to see a dodish horse., ,I would love to see a dodish horse.,dodish,NOT_FOUND,NOT_FOUND,,,,,,,,,
,,,,,html-keyboard-response,57,182993,0.0-2.0-2.0-0.10,52,1,11/28/23 22:50,50853196e778b5ff033c04a66adaecea,139.140.221.234,"Mozilla/5.0 (Macintosh; Intel Mac OS X 10_15_7) AppleWebKit/537.36 (KHTML, like Gecko) Chrome/119.0.0.0 Safari/537.36",Macintosh,Chrome,119.0.0.0,OS X,10_15_7,https://dgbhklbplk.cognition.run/?sona_id=13111,"en-US,en;q=0.9",13111,416778381,,2300,sentence,I would like to have a geck., ,I would like to have a geck.,dodish,geck,NOT_FOUND,,,,,,,,,
,,,,,html-keyboard-response,58,185410,0.0-2.0-2.0-0.11,52,1,11/28/23 22:50,50853196e778b5ff033c04a66adaecea,139.140.221.234,"Mozilla/5.0 (Macintosh; Intel Mac OS X 10_15_7) AppleWebKit/537.36 (KHTML, like Gecko) Chrome/119.0.0.0 Safari/537.36",Macintosh,Chrome,119.0.0.0,OS X,10_15_7,https://dgbhklbplk.cognition.run/?sona_id=13111,"en-US,en;q=0.9",13111,416778381,,2414,sentence,Everybody I met in Zimziland would love to have a foobly apple., ,Everybody I met in Zimziland would love to have a foobly apple.,foobly,Zimziland,NOT_FOUND,,,,,,,,,
,,,,,html-keyboard-response,59,187497,0.0-2.0-2.0-0.12,52,1,11/28/23 22:50,50853196e778b5ff033c04a66adaecea,139.140.221.234,"Mozilla/5.0 (Macintosh; Intel Mac OS X 10_15_7) AppleWebKit/537.36 (KHTML, like Gecko) Chrome/119.0.0.0 Safari/537.36",Macintosh,Chrome,119.0.0.0,OS X,10_15_7,https://dgbhklbplk.cognition.run/?sona_id=13111,"en-US,en;q=0.9",13111,416778381,,2084,sentence,"I stayed there for a couple of days, hoping I would find a geck.", ,"I stayed there for a couple of days, hoping I would find a geck.",dodish,geck,NOT_FOUND,,,,,,,,,
,,,,,html-keyboard-response,60,189522,0.0-2.0-2.0-0.13,52,1,11/28/23 22:50,50853196e778b5ff033c04a66adaecea,139.140.221.234,"Mozilla/5.0 (Macintosh; Intel Mac OS X 10_15_7) AppleWebKit/537.36 (KHTML, like Gecko) Chrome/119.0.0.0 Safari/537.36",Macintosh,Chrome,119.0.0.0,OS X,10_15_7,https://dgbhklbplk.cognition.run/?sona_id=13111,"en-US,en;q=0.9",13111,416778381,,2022,sentence,"In the end, I brought a geck home.", ,"In the end, I brought a geck home.",dodish,geck,NOT_FOUND,,,,,,,,,
,,,,,html-keyboard-response,61,192278,0.0-2.0-2.0-0.14,52,1,11/28/23 22:50,50853196e778b5ff033c04a66adaecea,139.140.221.234,"Mozilla/5.0 (Macintosh; Intel Mac OS X 10_15_7) AppleWebKit/537.36 (KHTML, like Gecko) Chrome/119.0.0.0 Safari/537.36",Macintosh,Chrome,119.0.0.0,OS X,10_15_7,https://dgbhklbplk.cognition.run/?sona_id=13111,"en-US,en;q=0.9",13111,416778381,,2752,sentence,Everybody would like to have a geck., ,Everybody would like to have a geck.,dodish,geck,NOT_FOUND,,,,,,,,,
,,,,,html-keyboard-response,62,193867,0.0-2.0-2.0-0.15,52,1,11/28/23 22:50,50853196e778b5ff033c04a66adaecea,139.140.221.234,"Mozilla/5.0 (Macintosh; Intel Mac OS X 10_15_7) AppleWebKit/537.36 (KHTML, like Gecko) Chrome/119.0.0.0 Safari/537.36",Macintosh,Chrome,119.0.0.0,OS X,10_15_7,https://dgbhklbplk.cognition.run/?sona_id=13111,"en-US,en;q=0.9",13111,416778381,,1586,sentence,I didn't find a mipp., ,I didn't find a mipp.,mipp,NOT_FOUND,NOT_FOUND,,,,,,,,,
,,,,,html-keyboard-response,63,196097,0.0-2.0-2.0-0.16,52,1,11/28/23 22:50,50853196e778b5ff033c04a66adaecea,139.140.221.234,"Mozilla/5.0 (Macintosh; Intel Mac OS X 10_15_7) AppleWebKit/537.36 (KHTML, like Gecko) Chrome/119.0.0.0 Safari/537.36",Macintosh,Chrome,119.0.0.0,OS X,10_15_7,https://dgbhklbplk.cognition.run/?sona_id=13111,"en-US,en;q=0.9",13111,416778381,,2228,sentence,"In the end, I decided I'd go looking for a foobly apple.", ,"In the end, I decided I'd go looking for a foobly apple.",foobly,NOT_FOUND,NOT_FOUND,,,,,,,,,
,,,,,html-keyboard-response,64,199632,0.0-2.0-2.0-0.17,52,1,11/28/23 22:50,50853196e778b5ff033c04a66adaecea,139.140.221.234,"Mozilla/5.0 (Macintosh; Intel Mac OS X 10_15_7) AppleWebKit/537.36 (KHTML, like Gecko) Chrome/119.0.0.0 Safari/537.36",Macintosh,Chrome,119.0.0.0,OS X,10_15_7,https://dgbhklbplk.cognition.run/?sona_id=13111,"en-US,en;q=0.9",13111,416778381,,3532,sentence,"At the end of day one, I was tired and just hoped to see a geck.", ,"At the end of day one, I was tired and just hoped to see a geck.",dodish,geck,NOT_FOUND,,,,,,,,,
,,,,,html-keyboard-response,65,203193,0.0-2.0-2.0-0.18,52,1,11/28/23 22:50,50853196e778b5ff033c04a66adaecea,139.140.221.234,"Mozilla/5.0 (Macintosh; Intel Mac OS X 10_15_7) AppleWebKit/537.36 (KHTML, like Gecko) Chrome/119.0.0.0 Safari/537.36",Macintosh,Chrome,119.0.0.0,OS X,10_15_7,https://dgbhklbplk.cognition.run/?sona_id=13111,"en-US,en;q=0.9",13111,416778381,,3559,sentence,I imagined that I would find a mipp in Zimziland., ,I imagined that I would find a mipp in Zimziland.,mipp,Zimziland,NOT_FOUND,,,,,,,,,
,,,,,html-keyboard-response,66,205251,0.0-2.0-2.0-0.19,52,1,11/28/23 22:50,50853196e778b5ff033c04a66adaecea,139.140.221.234,"Mozilla/5.0 (Macintosh; Intel Mac OS X 10_15_7) AppleWebKit/537.36 (KHTML, like Gecko) Chrome/119.0.0.0 Safari/537.36",Macintosh,Chrome,119.0.0.0,OS X,10_15_7,https://dgbhklbplk.cognition.run/?sona_id=13111,"en-US,en;q=0.9",13111,416778381,,2054,sentence,"There is no doubt, a dodish horse is the best!", ,"There is no doubt, a dodish horse is the best!",dodish,NOT_FOUND,NOT_FOUND,,,,,,,,,
,,,,,survey-text,67,210670,0.0-2.0-2.0-1.19-0.19,52,1,11/28/23 22:50,50853196e778b5ff033c04a66adaecea,139.140.221.234,"Mozilla/5.0 (Macintosh; Intel Mac OS X 10_15_7) AppleWebKit/537.36 (KHTML, like Gecko) Chrome/119.0.0.0 Safari/537.36",Macintosh,Chrome,119.0.0.0,OS X,10_15_7,https://dgbhklbplk.cognition.run/?sona_id=13111,"en-US,en;q=0.9",13111,416778381,,5414,attention,,dodish,,dodish,NOT_FOUND,NOT_FOUND,1,,,,,,,,
,,,,,html-keyboard-response,68,212694,0.0-2.0-2.0-0.20,52,1,11/28/23 22:50,50853196e778b5ff033c04a66adaecea,139.140.221.234,"Mozilla/5.0 (Macintosh; Intel Mac OS X 10_15_7) AppleWebKit/537.36 (KHTML, like Gecko) Chrome/119.0.0.0 Safari/537.36",Macintosh,Chrome,119.0.0.0,OS X,10_15_7,https://dgbhklbplk.cognition.run/?sona_id=13111,"en-US,en;q=0.9",13111,416778381,,2020,sentence,I have a picture of a dodish horse., ,I have a picture of a dodish horse.,dodish,NOT_FOUND,NOT_FOUND,,,,,,,,,
,,,,,html-keyboard-response,69,214222,0.0-2.0-2.0-0.21,52,1,11/28/23 22:50,50853196e778b5ff033c04a66adaecea,139.140.221.234,"Mozilla/5.0 (Macintosh; Intel Mac OS X 10_15_7) AppleWebKit/537.36 (KHTML, like Gecko) Chrome/119.0.0.0 Safari/537.36",Macintosh,Chrome,119.0.0.0,OS X,10_15_7,https://dgbhklbplk.cognition.run/?sona_id=13111,"en-US,en;q=0.9",13111,416778381,,1524,sentence,I hadn't seen a dodish horse for hours., ,I hadn't seen a dodish horse for hours.,dodish,NOT_FOUND,NOT_FOUND,,,,,,,,,
,,,,,html-keyboard-response,70,215755,0.0-2.0-2.0-0.22,52,1,11/28/23 22:50,50853196e778b5ff033c04a66adaecea,139.140.221.234,"Mozilla/5.0 (Macintosh; Intel Mac OS X 10_15_7) AppleWebKit/537.36 (KHTML, like Gecko) Chrome/119.0.0.0 Safari/537.36",Macintosh,Chrome,119.0.0.0,OS X,10_15_7,https://dgbhklbplk.cognition.run/?sona_id=13111,"en-US,en;q=0.9",13111,416778381,,1530,sentence,There are people who prefer a dodish horse., ,There are people who prefer a dodish horse.,dodish,NOT_FOUND,NOT_FOUND,,,,,,,,,
,,,,,html-keyboard-response,71,219518,0.0-2.0-2.0-0.23,52,1,11/28/23 22:50,50853196e778b5ff033c04a66adaecea,139.140.221.234,"Mozilla/5.0 (Macintosh; Intel Mac OS X 10_15_7) AppleWebKit/537.36 (KHTML, like Gecko) Chrome/119.0.0.0 Safari/537.36",Macintosh,Chrome,119.0.0.0,OS X,10_15_7,https://dgbhklbplk.cognition.run/?sona_id=13111,"en-US,en;q=0.9",13111,416778381,,3760,sentence,It's absolutely amazing to get to see a mipp in person., ,It's absolutely amazing to get to see a mipp in person.,mipp,NOT_FOUND,NOT_FOUND,,,,,,,,,
,,,,,html-keyboard-response,72,223222,0.0-2.0-2.0-0.24,52,1,11/28/23 22:50,50853196e778b5ff033c04a66adaecea,139.140.221.234,"Mozilla/5.0 (Macintosh; Intel Mac OS X 10_15_7) AppleWebKit/537.36 (KHTML, like Gecko) Chrome/119.0.0.0 Safari/537.36",Macintosh,Chrome,119.0.0.0,OS X,10_15_7,https://dgbhklbplk.cognition.run/?sona_id=13111,"en-US,en;q=0.9",13111,416778381,,3702,sentence,I went to a place where it's easy to find a foobly apple., ,I went to a place where it's easy to find a foobly apple.,foobly,NOT_FOUND,NOT_FOUND,,,,,,,,,
,,,,,html-keyboard-response,73,224609,0.0-2.0-2.0-0.25,52,1,11/28/23 22:50,50853196e778b5ff033c04a66adaecea,139.140.221.234,"Mozilla/5.0 (Macintosh; Intel Mac OS X 10_15_7) AppleWebKit/537.36 (KHTML, like Gecko) Chrome/119.0.0.0 Safari/537.36",Macintosh,Chrome,119.0.0.0,OS X,10_15_7,https://dgbhklbplk.cognition.run/?sona_id=13111,"en-US,en;q=0.9",13111,416778381,,1384,sentence,"She offered me a dodish horse, too.", ,"She offered me a dodish horse, too.",dodish,NOT_FOUND,NOT_FOUND,,,,,,,,,
,,,,,html-keyboard-response,74,227247,0.0-2.0-2.0-0.26,52,1,11/28/23 22:50,50853196e778b5ff033c04a66adaecea,139.140.221.234,"Mozilla/5.0 (Macintosh; Intel Mac OS X 10_15_7) AppleWebKit/537.36 (KHTML, like Gecko) Chrome/119.0.0.0 Safari/537.36",Macintosh,Chrome,119.0.0.0,OS X,10_15_7,https://dgbhklbplk.cognition.run/?sona_id=13111,"en-US,en;q=0.9",13111,416778381,,2634,sentence,They also said that they would really like to see a geck., ,They also said that they would really like to see a geck.,dodish,geck,NOT_FOUND,,,,,,,,,
,,,,,html-keyboard-response,75,229134,0.0-2.0-2.0-0.27,52,1,11/28/23 22:50,50853196e778b5ff033c04a66adaecea,139.140.221.234,"Mozilla/5.0 (Macintosh; Intel Mac OS X 10_15_7) AppleWebKit/537.36 (KHTML, like Gecko) Chrome/119.0.0.0 Safari/537.36",Macintosh,Chrome,119.0.0.0,OS X,10_15_7,https://dgbhklbplk.cognition.run/?sona_id=13111,"en-US,en;q=0.9",13111,416778381,,1884,sentence,I wished that they at least would have a geck., ,I wished that they at least would have a geck.,dodish,geck,NOT_FOUND,,,,,,,,,
,,,,,html-keyboard-response,76,231987,0.0-2.0-2.0-0.28,52,1,11/28/23 22:50,50853196e778b5ff033c04a66adaecea,139.140.221.234,"Mozilla/5.0 (Macintosh; Intel Mac OS X 10_15_7) AppleWebKit/537.36 (KHTML, like Gecko) Chrome/119.0.0.0 Safari/537.36",Macintosh,Chrome,119.0.0.0,OS X,10_15_7,https://dgbhklbplk.cognition.run/?sona_id=13111,"en-US,en;q=0.9",13111,416778381,,2849,sentence,My sister doesn't like to have a foobly apple., ,My sister doesn't like to have a foobly apple.,foobly,NOT_FOUND,NOT_FOUND,,,,,,,,,
,,,,,html-keyboard-response,77,234499,0.0-2.0-2.0-0.29,52,1,11/28/23 22:50,50853196e778b5ff033c04a66adaecea,139.140.221.234,"Mozilla/5.0 (Macintosh; Intel Mac OS X 10_15_7) AppleWebKit/537.36 (KHTML, like Gecko) Chrome/119.0.0.0 Safari/537.36",Macintosh,Chrome,119.0.0.0,OS X,10_15_7,https://dgbhklbplk.cognition.run/?sona_id=13111,"en-US,en;q=0.9",13111,416778381,,2509,sentence,"As soon as I arrived, I noticed a foobly apple.", ,"As soon as I arrived, I noticed a foobly apple.",foobly,NOT_FOUND,NOT_FOUND,,,,,,,,,
,,,,,html-keyboard-response,78,236925,0.0-2.0-2.0-0.30,52,1,11/28/23 22:50,50853196e778b5ff033c04a66adaecea,139.140.221.234,"Mozilla/5.0 (Macintosh; Intel Mac OS X 10_15_7) AppleWebKit/537.36 (KHTML, like Gecko) Chrome/119.0.0.0 Safari/537.36",Macintosh,Chrome,119.0.0.0,OS X,10_15_7,https://dgbhklbplk.cognition.run/?sona_id=13111,"en-US,en;q=0.9",13111,416778381,,2422,sentence,I took a lot of photos of a geck I saw., ,I took a lot of photos of a geck I saw.,dodish,geck,NOT_FOUND,,,,,,,,,
,,,,,html-keyboard-response,79,238766,0.0-2.0-2.0-0.31,52,1,11/28/23 22:50,50853196e778b5ff033c04a66adaecea,139.140.221.234,"Mozilla/5.0 (Macintosh; Intel Mac OS X 10_15_7) AppleWebKit/537.36 (KHTML, like Gecko) Chrome/119.0.0.0 Safari/537.36",Macintosh,Chrome,119.0.0.0,OS X,10_15_7,https://dgbhklbplk.cognition.run/?sona_id=13111,"en-US,en;q=0.9",13111,416778381,,1838,sentence,"On the second day, I saw a mipp.", ,"On the second day, I saw a mipp.",mipp,NOT_FOUND,NOT_FOUND,,,,,,,,,
,,,,,html-keyboard-response,80,240793,0.0-2.0-2.0-0.32,52,1,11/28/23 22:50,50853196e778b5ff033c04a66adaecea,139.140.221.234,"Mozilla/5.0 (Macintosh; Intel Mac OS X 10_15_7) AppleWebKit/537.36 (KHTML, like Gecko) Chrome/119.0.0.0 Safari/537.36",Macintosh,Chrome,119.0.0.0,OS X,10_15_7,https://dgbhklbplk.cognition.run/?sona_id=13111,"en-US,en;q=0.9",13111,416778381,,2025,sentence,I went to Zimziland because I heard you can get a foobly apple there., ,I went to Zimziland because I heard you can get a foobly apple there.,foobly,Zimziland,NOT_FOUND,,,,,,,,,
,,,,,html-keyboard-response,81,242961,0.0-2.0-2.0-0.33,52,1,11/28/23 22:50,50853196e778b5ff033c04a66adaecea,139.140.221.234,"Mozilla/5.0 (Macintosh; Intel Mac OS X 10_15_7) AppleWebKit/537.36 (KHTML, like Gecko) Chrome/119.0.0.0 Safari/537.36",Macintosh,Chrome,119.0.0.0,OS X,10_15_7,https://dgbhklbplk.cognition.run/?sona_id=13111,"en-US,en;q=0.9",13111,416778381,,2164,sentence,The people I met there told me they saw a foobly apple that day., ,The people I met there told me they saw a foobly apple that day.,foobly,NOT_FOUND,NOT_FOUND,,,,,,,,,
,,,,,html-keyboard-response,82,244940,0.0-2.0-2.0-0.34,52,1,11/28/23 22:50,50853196e778b5ff033c04a66adaecea,139.140.221.234,"Mozilla/5.0 (Macintosh; Intel Mac OS X 10_15_7) AppleWebKit/537.36 (KHTML, like Gecko) Chrome/119.0.0.0 Safari/537.36",Macintosh,Chrome,119.0.0.0,OS X,10_15_7,https://dgbhklbplk.cognition.run/?sona_id=13111,"en-US,en;q=0.9",13111,416778381,,1975,sentence,"On the eleventh day of my trip, I found a dodish horse.", ,"On the eleventh day of my trip, I found a dodish horse.",dodish,NOT_FOUND,NOT_FOUND,,,,,,,,,
,,,,,html-keyboard-response,83,247882,0.0-2.0-2.0-0.35,52,1,11/28/23 22:50,50853196e778b5ff033c04a66adaecea,139.140.221.234,"Mozilla/5.0 (Macintosh; Intel Mac OS X 10_15_7) AppleWebKit/537.36 (KHTML, like Gecko) Chrome/119.0.0.0 Safari/537.36",Macintosh,Chrome,119.0.0.0,OS X,10_15_7,https://dgbhklbplk.cognition.run/?sona_id=13111,"en-US,en;q=0.9",13111,416778381,,2939,sentence,I am not sure if I would like a dodish horse better., ,I am not sure if I would like a dodish horse better.,dodish,NOT_FOUND,NOT_FOUND,,,,,,,,,
,,,,,survey-text,84,251223,0.0-2.0-2.0-1.35-0.35,52,1,11/28/23 22:50,50853196e778b5ff033c04a66adaecea,139.140.221.234,"Mozilla/5.0 (Macintosh; Intel Mac OS X 10_15_7) AppleWebKit/537.36 (KHTML, like Gecko) Chrome/119.0.0.0 Safari/537.36",Macintosh,Chrome,119.0.0.0,OS X,10_15_7,https://dgbhklbplk.cognition.run/?sona_id=13111,"en-US,en;q=0.9",13111,416778381,,3335,attention,,dodish,,dodish,NOT_FOUND,NOT_FOUND,1,,,,,,,,
,,,,,html-keyboard-response,85,252255,0.0-2.0-2.0-0.36,52,1,11/28/23 22:50,50853196e778b5ff033c04a66adaecea,139.140.221.234,"Mozilla/5.0 (Macintosh; Intel Mac OS X 10_15_7) AppleWebKit/537.36 (KHTML, like Gecko) Chrome/119.0.0.0 Safari/537.36",Macintosh,Chrome,119.0.0.0,OS X,10_15_7,https://dgbhklbplk.cognition.run/?sona_id=13111,"en-US,en;q=0.9",13111,416778381,,1028,sentence,I'm a geck fan!, ,I'm a geck fan!,dodish,geck,NOT_FOUND,,,,,,,,,
,,,,,html-keyboard-response,86,254928,0.0-2.0-2.0-0.37,52,1,11/28/23 22:50,50853196e778b5ff033c04a66adaecea,139.140.221.234,"Mozilla/5.0 (Macintosh; Intel Mac OS X 10_15_7) AppleWebKit/537.36 (KHTML, like Gecko) Chrome/119.0.0.0 Safari/537.36",Macintosh,Chrome,119.0.0.0,OS X,10_15_7,https://dgbhklbplk.cognition.run/?sona_id=13111,"en-US,en;q=0.9",13111,416778381,,2669,sentence,Sometimes I wish it were easier to get a mipp., ,Sometimes I wish it were easier to get a mipp.,mipp,NOT_FOUND,NOT_FOUND,,,,,,,,,
,,,,,html-keyboard-response,87,256822,0.0-2.0-2.0-0.38,52,1,11/28/23 22:50,50853196e778b5ff033c04a66adaecea,139.140.221.234,"Mozilla/5.0 (Macintosh; Intel Mac OS X 10_15_7) AppleWebKit/537.36 (KHTML, like Gecko) Chrome/119.0.0.0 Safari/537.36",Macintosh,Chrome,119.0.0.0,OS X,10_15_7,https://dgbhklbplk.cognition.run/?sona_id=13111,"en-US,en;q=0.9",13111,416778381,,1891,sentence,Maybe I would prefer a foobly apple., ,Maybe I would prefer a foobly apple.,foobly,NOT_FOUND,NOT_FOUND,,,,,,,,,
,,,,,html-keyboard-response,88,258481,0.0-2.0-2.0-0.39,52,1,11/28/23 22:50,50853196e778b5ff033c04a66adaecea,139.140.221.234,"Mozilla/5.0 (Macintosh; Intel Mac OS X 10_15_7) AppleWebKit/537.36 (KHTML, like Gecko) Chrome/119.0.0.0 Safari/537.36",Macintosh,Chrome,119.0.0.0,OS X,10_15_7,https://dgbhklbplk.cognition.run/?sona_id=13111,"en-US,en;q=0.9",13111,416778381,,1657,sentence,I only found a dodish horse., ,I only found a dodish horse.,dodish,NOT_FOUND,NOT_FOUND,,,,,,,,,
,,,,,instructions,89,260815,0.0-2.0-3.0,52,1,11/28/23 22:50,50853196e778b5ff033c04a66adaecea,139.140.221.234,"Mozilla/5.0 (Macintosh; Intel Mac OS X 10_15_7) AppleWebKit/537.36 (KHTML, like Gecko) Chrome/119.0.0.0 Safari/537.36",Macintosh,Chrome,119.0.0.0,OS X,10_15_7,https://dgbhklbplk.cognition.run/?sona_id=13111,"en-US,en;q=0.9",13111,416778381,"[{""page_index"":0,""viewing_time"":2329}]",2330,instructions,,,,,,,,,,,,,,,
,,,,,html-keyboard-response,90,263865,0.0-2.0-4.0-0.0,52,1,11/28/23 22:50,50853196e778b5ff033c04a66adaecea,139.140.221.234,"Mozilla/5.0 (Macintosh; Intel Mac OS X 10_15_7) AppleWebKit/537.36 (KHTML, like Gecko) Chrome/119.0.0.0 Safari/537.36",Macintosh,Chrome,119.0.0.0,OS X,10_15_7,https://dgbhklbplk.cognition.run/?sona_id=13111,"en-US,en;q=0.9",13111,416778381,,3046,sentence,"In the end, I decided I'd go looking for a foobly apple.", ,"In the end, I decided I'd go looking for a foobly apple.",foobly,NOT_FOUND,NOT_FOUND,,,,,,,,,
,,,,,html-keyboard-response,91,265667,0.0-2.0-4.0-0.1,52,1,11/28/23 22:50,50853196e778b5ff033c04a66adaecea,139.140.221.234,"Mozilla/5.0 (Macintosh; Intel Mac OS X 10_15_7) AppleWebKit/537.36 (KHTML, like Gecko) Chrome/119.0.0.0 Safari/537.36",Macintosh,Chrome,119.0.0.0,OS X,10_15_7,https://dgbhklbplk.cognition.run/?sona_id=13111,"en-US,en;q=0.9",13111,416778381,,1798,sentence,I'm a geck fan!, ,I'm a geck fan!,dodish,geck,NOT_FOUND,,,,,,,,,
,,,,,html-keyboard-response,92,268484,0.0-2.0-4.0-0.2,52,1,11/28/23 22:50,50853196e778b5ff033c04a66adaecea,139.140.221.234,"Mozilla/5.0 (Macintosh; Intel Mac OS X 10_15_7) AppleWebKit/537.36 (KHTML, like Gecko) Chrome/119.0.0.0 Safari/537.36",Macintosh,Chrome,119.0.0.0,OS X,10_15_7,https://dgbhklbplk.cognition.run/?sona_id=13111,"en-US,en;q=0.9",13111,416778381,,2814,sentence,I have a picture of a dodish horse., ,I have a picture of a dodish horse.,dodish,NOT_FOUND,NOT_FOUND,,,,,,,,,
,,,,,html-keyboard-response,93,271174,0.0-2.0-4.0-0.3,52,1,11/28/23 22:50,50853196e778b5ff033c04a66adaecea,139.140.221.234,"Mozilla/5.0 (Macintosh; Intel Mac OS X 10_15_7) AppleWebKit/537.36 (KHTML, like Gecko) Chrome/119.0.0.0 Safari/537.36",Macintosh,Chrome,119.0.0.0,OS X,10_15_7,https://dgbhklbplk.cognition.run/?sona_id=13111,"en-US,en;q=0.9",13111,416778381,,2686,sentence,Sometimes I wish it were easier to get a mipp., ,Sometimes I wish it were easier to get a mipp.,mipp,NOT_FOUND,NOT_FOUND,,,,,,,,,
,,,,,html-keyboard-response,94,275488,0.0-2.0-4.0-0.4,52,1,11/28/23 22:50,50853196e778b5ff033c04a66adaecea,139.140.221.234,"Mozilla/5.0 (Macintosh; Intel Mac OS X 10_15_7) AppleWebKit/537.36 (KHTML, like Gecko) Chrome/119.0.0.0 Safari/537.36",Macintosh,Chrome,119.0.0.0,OS X,10_15_7,https://dgbhklbplk.cognition.run/?sona_id=13111,"en-US,en;q=0.9",13111,416778381,,4311,sentence,The people I met there told me they saw a foobly apple that day., ,The people I met there told me they saw a foobly apple that day.,foobly,NOT_FOUND,NOT_FOUND,,,,,,,,,
,,,,,html-keyboard-response,95,278323,0.0-2.0-4.0-0.5,52,1,11/28/23 22:50,50853196e778b5ff033c04a66adaecea,139.140.221.234,"Mozilla/5.0 (Macintosh; Intel Mac OS X 10_15_7) AppleWebKit/537.36 (KHTML, like Gecko) Chrome/119.0.0.0 Safari/537.36",Macintosh,Chrome,119.0.0.0,OS X,10_15_7,https://dgbhklbplk.cognition.run/?sona_id=13111,"en-US,en;q=0.9",13111,416778381,,2831,sentence,I went out early to look for a geck., ,I went out early to look for a geck.,dodish,geck,NOT_FOUND,,,,,,,,,
,,,,,html-keyboard-response,96,282651,0.0-2.0-4.0-0.6,52,1,11/28/23 22:50,50853196e778b5ff033c04a66adaecea,139.140.221.234,"Mozilla/5.0 (Macintosh; Intel Mac OS X 10_15_7) AppleWebKit/537.36 (KHTML, like Gecko) Chrome/119.0.0.0 Safari/537.36",Macintosh,Chrome,119.0.0.0,OS X,10_15_7,https://dgbhklbplk.cognition.run/?sona_id=13111,"en-US,en;q=0.9",13111,416778381,,4325,sentence,"At the end of day one, I was tired and just hoped to see a geck.", ,"At the end of day one, I was tired and just hoped to see a geck.",dodish,geck,NOT_FOUND,,,,,,,,,
,,,,,survey-text,97,285322,0.0-2.0-4.0-1.6-0.6,52,1,11/28/23 22:50,50853196e778b5ff033c04a66adaecea,139.140.221.234,"Mozilla/5.0 (Macintosh; Intel Mac OS X 10_15_7) AppleWebKit/537.36 (KHTML, like Gecko) Chrome/119.0.0.0 Safari/537.36",Macintosh,Chrome,119.0.0.0,OS X,10_15_7,https://dgbhklbplk.cognition.run/?sona_id=13111,"en-US,en;q=0.9",13111,416778381,,2665,attention,,geck,,dodish,geck,NOT_FOUND,1,,,,,,,,
,,,,,html-keyboard-response,98,286622,0.0-2.0-4.0-0.7,52,1,11/28/23 22:50,50853196e778b5ff033c04a66adaecea,139.140.221.234,"Mozilla/5.0 (Macintosh; Intel Mac OS X 10_15_7) AppleWebKit/537.36 (KHTML, like Gecko) Chrome/119.0.0.0 Safari/537.36",Macintosh,Chrome,119.0.0.0,OS X,10_15_7,https://dgbhklbplk.cognition.run/?sona_id=13111,"en-US,en;q=0.9",13111,416778381,,1295,sentence,I would like to have a geck., ,I would like to have a geck.,dodish,geck,NOT_FOUND,,,,,,,,,
,,,,,html-keyboard-response,99,288267,0.0-2.0-4.0-0.8,52,1,11/28/23 22:50,50853196e778b5ff033c04a66adaecea,139.140.221.234,"Mozilla/5.0 (Macintosh; Intel Mac OS X 10_15_7) AppleWebKit/537.36 (KHTML, like Gecko) Chrome/119.0.0.0 Safari/537.36",Macintosh,Chrome,119.0.0.0,OS X,10_15_7,https://dgbhklbplk.cognition.run/?sona_id=13111,"en-US,en;q=0.9",13111,416778381,,1642,sentence,There are people who prefer a dodish horse., ,There are people who prefer a dodish horse.,dodish,NOT_FOUND,NOT_FOUND,,,,,,,,,
,,,,,html-keyboard-response,100,289990,0.0-2.0-4.0-0.9,52,1,11/28/23 22:50,50853196e778b5ff033c04a66adaecea,139.140.221.234,"Mozilla/5.0 (Macintosh; Intel Mac OS X 10_15_7) AppleWebKit/537.36 (KHTML, like Gecko) Chrome/119.0.0.0 Safari/537.36",Macintosh,Chrome,119.0.0.0,OS X,10_15_7,https://dgbhklbplk.cognition.run/?sona_id=13111,"en-US,en;q=0.9",13111,416778381,,1720,sentence,Maybe I would prefer a foobly apple., ,Maybe I would prefer a foobly apple.,foobly,NOT_FOUND,NOT_FOUND,,,,,,,,,
,,,,,html-keyboard-response,101,292444,0.0-2.0-4.0-0.10,52,1,11/28/23 22:50,50853196e778b5ff033c04a66adaecea,139.140.221.234,"Mozilla/5.0 (Macintosh; Intel Mac OS X 10_15_7) AppleWebKit/537.36 (KHTML, like Gecko) Chrome/119.0.0.0 Safari/537.36",Macintosh,Chrome,119.0.0.0,OS X,10_15_7,https://dgbhklbplk.cognition.run/?sona_id=13111,"en-US,en;q=0.9",13111,416778381,,2450,sentence,"There is no doubt, a dodish horse is the best!", ,"There is no doubt, a dodish horse is the best!",dodish,NOT_FOUND,NOT_FOUND,,,,,,,,,
,,,,,html-keyboard-response,102,294441,0.0-2.0-4.0-0.11,52,1,11/28/23 22:50,50853196e778b5ff033c04a66adaecea,139.140.221.234,"Mozilla/5.0 (Macintosh; Intel Mac OS X 10_15_7) AppleWebKit/537.36 (KHTML, like Gecko) Chrome/119.0.0.0 Safari/537.36",Macintosh,Chrome,119.0.0.0,OS X,10_15_7,https://dgbhklbplk.cognition.run/?sona_id=13111,"en-US,en;q=0.9",13111,416778381,,1993,sentence,I would really love to have a foobly apple., ,I would really love to have a foobly apple.,foobly,NOT_FOUND,NOT_FOUND,,,,,,,,,
,,,,,html-keyboard-response,103,296679,0.0-2.0-4.0-0.12,52,1,11/28/23 22:50,50853196e778b5ff033c04a66adaecea,139.140.221.234,"Mozilla/5.0 (Macintosh; Intel Mac OS X 10_15_7) AppleWebKit/537.36 (KHTML, like Gecko) Chrome/119.0.0.0 Safari/537.36",Macintosh,Chrome,119.0.0.0,OS X,10_15_7,https://dgbhklbplk.cognition.run/?sona_id=13111,"en-US,en;q=0.9",13111,416778381,,2234,sentence,I thought maybe I'd see a mipp on the next day., ,I thought maybe I'd see a mipp on the next day.,mipp,NOT_FOUND,NOT_FOUND,,,,,,,,,
,,,,,html-keyboard-response,104,298800,0.0-2.0-4.0-0.13,52,1,11/28/23 22:50,50853196e778b5ff033c04a66adaecea,139.140.221.234,"Mozilla/5.0 (Macintosh; Intel Mac OS X 10_15_7) AppleWebKit/537.36 (KHTML, like Gecko) Chrome/119.0.0.0 Safari/537.36",Macintosh,Chrome,119.0.0.0,OS X,10_15_7,https://dgbhklbplk.cognition.run/?sona_id=13111,"en-US,en;q=0.9",13111,416778381,,2117,sentence,Everybody I met in Zimziland would love to have a foobly apple., ,Everybody I met in Zimziland would love to have a foobly apple.,foobly,Zimziland,NOT_FOUND,,,,,,,,,
,,,,,html-keyboard-response,105,300568,0.0-2.0-4.0-0.14,52,1,11/28/23 22:50,50853196e778b5ff033c04a66adaecea,139.140.221.234,"Mozilla/5.0 (Macintosh; Intel Mac OS X 10_15_7) AppleWebKit/537.36 (KHTML, like Gecko) Chrome/119.0.0.0 Safari/537.36",Macintosh,Chrome,119.0.0.0,OS X,10_15_7,https://dgbhklbplk.cognition.run/?sona_id=13111,"en-US,en;q=0.9",13111,416778381,,1765,sentence,"In the end, I brought a geck home.", ,"In the end, I brought a geck home.",dodish,geck,NOT_FOUND,,,,,,,,,
,,,,,html-keyboard-response,106,303354,0.0-2.0-4.0-0.15,52,1,11/28/23 22:50,50853196e778b5ff033c04a66adaecea,139.140.221.234,"Mozilla/5.0 (Macintosh; Intel Mac OS X 10_15_7) AppleWebKit/537.36 (KHTML, like Gecko) Chrome/119.0.0.0 Safari/537.36",Macintosh,Chrome,119.0.0.0,OS X,10_15_7,https://dgbhklbplk.cognition.run/?sona_id=13111,"en-US,en;q=0.9",13111,416778381,,2782,sentence,I hadn't seen a dodish horse for hours., ,I hadn't seen a dodish horse for hours.,dodish,NOT_FOUND,NOT_FOUND,,,,,,,,,
,,,,,html-keyboard-response,107,304944,0.0-2.0-4.0-0.16,52,1,11/28/23 22:50,50853196e778b5ff033c04a66adaecea,139.140.221.234,"Mozilla/5.0 (Macintosh; Intel Mac OS X 10_15_7) AppleWebKit/537.36 (KHTML, like Gecko) Chrome/119.0.0.0 Safari/537.36",Macintosh,Chrome,119.0.0.0,OS X,10_15_7,https://dgbhklbplk.cognition.run/?sona_id=13111,"en-US,en;q=0.9",13111,416778381,,1586,sentence,"As soon as I arrived, I noticed a foobly apple.", ,"As soon as I arrived, I noticed a foobly apple.",foobly,NOT_FOUND,NOT_FOUND,,,,,,,,,
,,,,,html-keyboard-response,108,307227,0.0-2.0-4.0-0.17,52,1,11/28/23 22:50,50853196e778b5ff033c04a66adaecea,139.140.221.234,"Mozilla/5.0 (Macintosh; Intel Mac OS X 10_15_7) AppleWebKit/537.36 (KHTML, like Gecko) Chrome/119.0.0.0 Safari/537.36",Macintosh,Chrome,119.0.0.0,OS X,10_15_7,https://dgbhklbplk.cognition.run/?sona_id=13111,"en-US,en;q=0.9",13111,416778381,,2279,sentence,It's absolutely amazing to get to see a mipp in person., ,It's absolutely amazing to get to see a mipp in person.,mipp,NOT_FOUND,NOT_FOUND,,,,,,,,,
,,,,,html-keyboard-response,109,309206,0.0-2.0-4.0-0.18,52,1,11/28/23 22:50,50853196e778b5ff033c04a66adaecea,139.140.221.234,"Mozilla/5.0 (Macintosh; Intel Mac OS X 10_15_7) AppleWebKit/537.36 (KHTML, like Gecko) Chrome/119.0.0.0 Safari/537.36",Macintosh,Chrome,119.0.0.0,OS X,10_15_7,https://dgbhklbplk.cognition.run/?sona_id=13111,"en-US,en;q=0.9",13111,416778381,,1974,sentence,"I stayed there for a couple of days, hoping I would find a geck.", ,"I stayed there for a couple of days, hoping I would find a geck.",dodish,geck,NOT_FOUND,,,,,,,,,
,,,,,html-keyboard-response,110,311600,0.0-2.0-4.0-0.19,52,1,11/28/23 22:50,50853196e778b5ff033c04a66adaecea,139.140.221.234,"Mozilla/5.0 (Macintosh; Intel Mac OS X 10_15_7) AppleWebKit/537.36 (KHTML, like Gecko) Chrome/119.0.0.0 Safari/537.36",Macintosh,Chrome,119.0.0.0,OS X,10_15_7,https://dgbhklbplk.cognition.run/?sona_id=13111,"en-US,en;q=0.9",13111,416778381,,2390,sentence,My sister told me you can get a mipp there., ,My sister told me you can get a mipp there.,mipp,NOT_FOUND,NOT_FOUND,,,,,,,,,
,,,,,survey-text,111,314380,0.0-2.0-4.0-1.19-0.19,52,1,11/28/23 22:50,50853196e778b5ff033c04a66adaecea,139.140.221.234,"Mozilla/5.0 (Macintosh; Intel Mac OS X 10_15_7) AppleWebKit/537.36 (KHTML, like Gecko) Chrome/119.0.0.0 Safari/537.36",Macintosh,Chrome,119.0.0.0,OS X,10_15_7,https://dgbhklbplk.cognition.run/?sona_id=13111,"en-US,en;q=0.9",13111,416778381,,2774,attention,,mipp,,mipp,NOT_FOUND,NOT_FOUND,1,,,,,,,,
,,,,,html-keyboard-response,112,315387,0.0-2.0-4.0-0.20,52,1,11/28/23 22:50,50853196e778b5ff033c04a66adaecea,139.140.221.234,"Mozilla/5.0 (Macintosh; Intel Mac OS X 10_15_7) AppleWebKit/537.36 (KHTML, like Gecko) Chrome/119.0.0.0 Safari/537.36",Macintosh,Chrome,119.0.0.0,OS X,10_15_7,https://dgbhklbplk.cognition.run/?sona_id=13111,"en-US,en;q=0.9",13111,416778381,,1002,sentence,"She offered me a dodish horse, too.", ,"She offered me a dodish horse, too.",dodish,NOT_FOUND,NOT_FOUND,,,,,,,,,
,,,,,html-keyboard-response,113,317450,0.0-2.0-4.0-0.21,52,1,11/28/23 22:50,50853196e778b5ff033c04a66adaecea,139.140.221.234,"Mozilla/5.0 (Macintosh; Intel Mac OS X 10_15_7) AppleWebKit/537.36 (KHTML, like Gecko) Chrome/119.0.0.0 Safari/537.36",Macintosh,Chrome,119.0.0.0,OS X,10_15_7,https://dgbhklbplk.cognition.run/?sona_id=13111,"en-US,en;q=0.9",13111,416778381,,2059,sentence,I went to Zimziland because I heard you can get a foobly apple there., ,I went to Zimziland because I heard you can get a foobly apple there.,foobly,Zimziland,NOT_FOUND,,,,,,,,,
,,,,,html-keyboard-response,114,319372,0.0-2.0-4.0-0.22,52,1,11/28/23 22:50,50853196e778b5ff033c04a66adaecea,139.140.221.234,"Mozilla/5.0 (Macintosh; Intel Mac OS X 10_15_7) AppleWebKit/537.36 (KHTML, like Gecko) Chrome/119.0.0.0 Safari/537.36",Macintosh,Chrome,119.0.0.0,OS X,10_15_7,https://dgbhklbplk.cognition.run/?sona_id=13111,"en-US,en;q=0.9",13111,416778381,,1918,sentence,One lady offered me a foobly apple., ,One lady offered me a foobly apple.,foobly,NOT_FOUND,NOT_FOUND,,,,,,,,,
,,,,,html-keyboard-response,115,321538,0.0-2.0-4.0-0.23,52,1,11/28/23 22:50,50853196e778b5ff033c04a66adaecea,139.140.221.234,"Mozilla/5.0 (Macintosh; Intel Mac OS X 10_15_7) AppleWebKit/537.36 (KHTML, like Gecko) Chrome/119.0.0.0 Safari/537.36",Macintosh,Chrome,119.0.0.0,OS X,10_15_7,https://dgbhklbplk.cognition.run/?sona_id=13111,"en-US,en;q=0.9",13111,416778381,,2162,sentence,I didn't find a mipp., ,I didn't find a mipp.,mipp,NOT_FOUND,NOT_FOUND,,,,,,,,,
,,,,,html-keyboard-response,116,324114,0.0-2.0-4.0-0.24,52,1,11/28/23 22:50,50853196e778b5ff033c04a66adaecea,139.140.221.234,"Mozilla/5.0 (Macintosh; Intel Mac OS X 10_15_7) AppleWebKit/537.36 (KHTML, like Gecko) Chrome/119.0.0.0 Safari/537.36",Macintosh,Chrome,119.0.0.0,OS X,10_15_7,https://dgbhklbplk.cognition.run/?sona_id=13111,"en-US,en;q=0.9",13111,416778381,,2572,sentence,I only found a dodish horse., ,I only found a dodish horse.,dodish,NOT_FOUND,NOT_FOUND,,,,,,,,,
,,,,,html-keyboard-response,117,327159,0.0-2.0-4.0-0.25,52,1,11/28/23 22:50,50853196e778b5ff033c04a66adaecea,139.140.221.234,"Mozilla/5.0 (Macintosh; Intel Mac OS X 10_15_7) AppleWebKit/537.36 (KHTML, like Gecko) Chrome/119.0.0.0 Safari/537.36",Macintosh,Chrome,119.0.0.0,OS X,10_15_7,https://dgbhklbplk.cognition.run/?sona_id=13111,"en-US,en;q=0.9",13111,416778381,,3041,sentence,I would love to see a dodish horse., ,I would love to see a dodish horse.,dodish,NOT_FOUND,NOT_FOUND,,,,,,,,,
,,,,,html-keyboard-response,118,328980,0.0-2.0-4.0-0.26,52,1,11/28/23 22:50,50853196e778b5ff033c04a66adaecea,139.140.221.234,"Mozilla/5.0 (Macintosh; Intel Mac OS X 10_15_7) AppleWebKit/537.36 (KHTML, like Gecko) Chrome/119.0.0.0 Safari/537.36",Macintosh,Chrome,119.0.0.0,OS X,10_15_7,https://dgbhklbplk.cognition.run/?sona_id=13111,"en-US,en;q=0.9",13111,416778381,,1817,sentence,"On the second day, I saw a mipp.", ,"On the second day, I saw a mipp.",mipp,NOT_FOUND,NOT_FOUND,,,,,,,,,
,,,,,html-keyboard-response,119,330970,0.0-2.0-4.0-0.27,52,1,11/28/23 22:50,50853196e778b5ff033c04a66adaecea,139.140.221.234,"Mozilla/5.0 (Macintosh; Intel Mac OS X 10_15_7) AppleWebKit/537.36 (KHTML, like Gecko) Chrome/119.0.0.0 Safari/537.36",Macintosh,Chrome,119.0.0.0,OS X,10_15_7,https://dgbhklbplk.cognition.run/?sona_id=13111,"en-US,en;q=0.9",13111,416778381,,1985,sentence,My sister doesn't like to have a foobly apple., ,My sister doesn't like to have a foobly apple.,foobly,NOT_FOUND,NOT_FOUND,,,,,,,,,
,,,,,html-keyboard-response,120,332990,0.0-2.0-4.0-0.28,52,1,11/28/23 22:50,50853196e778b5ff033c04a66adaecea,139.140.221.234,"Mozilla/5.0 (Macintosh; Intel Mac OS X 10_15_7) AppleWebKit/537.36 (KHTML, like Gecko) Chrome/119.0.0.0 Safari/537.36",Macintosh,Chrome,119.0.0.0,OS X,10_15_7,https://dgbhklbplk.cognition.run/?sona_id=13111,"en-US,en;q=0.9",13111,416778381,,2015,sentence,I went to a place where it's easy to find a foobly apple., ,I went to a place where it's easy to find a foobly apple.,foobly,NOT_FOUND,NOT_FOUND,,,,,,,,,
,,,,,html-keyboard-response,121,334286,0.0-2.0-4.0-0.29,52,1,11/28/23 22:50,50853196e778b5ff033c04a66adaecea,139.140.221.234,"Mozilla/5.0 (Macintosh; Intel Mac OS X 10_15_7) AppleWebKit/537.36 (KHTML, like Gecko) Chrome/119.0.0.0 Safari/537.36",Macintosh,Chrome,119.0.0.0,OS X,10_15_7,https://dgbhklbplk.cognition.run/?sona_id=13111,"en-US,en;q=0.9",13111,416778381,,1292,sentence,I wished that they at least would have a geck., ,I wished that they at least would have a geck.,dodish,geck,NOT_FOUND,,,,,,,,,
,,,,,html-keyboard-response,122,336053,0.0-2.0-4.0-0.30,52,1,11/28/23 22:50,50853196e778b5ff033c04a66adaecea,139.140.221.234,"Mozilla/5.0 (Macintosh; Intel Mac OS X 10_15_7) AppleWebKit/537.36 (KHTML, like Gecko) Chrome/119.0.0.0 Safari/537.36",Macintosh,Chrome,119.0.0.0,OS X,10_15_7,https://dgbhklbplk.cognition.run/?sona_id=13111,"en-US,en;q=0.9",13111,416778381,,1762,sentence,My friend Sally said she saw a mipp once., ,My friend Sally said she saw a mipp once.,mipp,NOT_FOUND,NOT_FOUND,,,,,,,,,
,,,,,html-keyboard-response,123,337597,0.0-2.0-4.0-0.31,52,1,11/28/23 22:50,50853196e778b5ff033c04a66adaecea,139.140.221.234,"Mozilla/5.0 (Macintosh; Intel Mac OS X 10_15_7) AppleWebKit/537.36 (KHTML, like Gecko) Chrome/119.0.0.0 Safari/537.36",Macintosh,Chrome,119.0.0.0,OS X,10_15_7,https://dgbhklbplk.cognition.run/?sona_id=13111,"en-US,en;q=0.9",13111,416778381,,1539,sentence,I am not sure if I would like a dodish horse better., ,I am not sure if I would like a dodish horse better.,dodish,NOT_FOUND,NOT_FOUND,,,,,,,,,
,,,,,html-keyboard-response,124,339523,0.0-2.0-4.0-0.32,52,1,11/28/23 22:50,50853196e778b5ff033c04a66adaecea,139.140.221.234,"Mozilla/5.0 (Macintosh; Intel Mac OS X 10_15_7) AppleWebKit/537.36 (KHTML, like Gecko) Chrome/119.0.0.0 Safari/537.36",Macintosh,Chrome,119.0.0.0,OS X,10_15_7,https://dgbhklbplk.cognition.run/?sona_id=13111,"en-US,en;q=0.9",13111,416778381,,1921,sentence,I also love to have a mipp., ,I also love to have a mipp.,mipp,NOT_FOUND,NOT_FOUND,,,,,,,,,
,,,,,html-keyboard-response,125,342219,0.0-2.0-4.0-0.33,52,1,11/28/23 22:50,50853196e778b5ff033c04a66adaecea,139.140.221.234,"Mozilla/5.0 (Macintosh; Intel Mac OS X 10_15_7) AppleWebKit/537.36 (KHTML, like Gecko) Chrome/119.0.0.0 Safari/537.36",Macintosh,Chrome,119.0.0.0,OS X,10_15_7,https://dgbhklbplk.cognition.run/?sona_id=13111,"en-US,en;q=0.9",13111,416778381,,2692,sentence,I imagined that I would find a mipp in Zimziland., ,I imagined that I would find a mipp in Zimziland.,mipp,Zimziland,NOT_FOUND,,,,,,,,,
,,,,,html-keyboard-response,126,344010,0.0-2.0-4.0-0.34,52,1,11/28/23 22:50,50853196e778b5ff033c04a66adaecea,139.140.221.234,"Mozilla/5.0 (Macintosh; Intel Mac OS X 10_15_7) AppleWebKit/537.36 (KHTML, like Gecko) Chrome/119.0.0.0 Safari/537.36",Macintosh,Chrome,119.0.0.0,OS X,10_15_7,https://dgbhklbplk.cognition.run/?sona_id=13111,"en-US,en;q=0.9",13111,416778381,,1786,sentence,You never know with a dodish horse., ,You never know with a dodish horse.,dodish,NOT_FOUND,NOT_FOUND,,,,,,,,,
,,,,,html-keyboard-response,127,345466,0.0-2.0-4.0-0.35,52,1,11/28/23 22:50,50853196e778b5ff033c04a66adaecea,139.140.221.234,"Mozilla/5.0 (Macintosh; Intel Mac OS X 10_15_7) AppleWebKit/537.36 (KHTML, like Gecko) Chrome/119.0.0.0 Safari/537.36",Macintosh,Chrome,119.0.0.0,OS X,10_15_7,https://dgbhklbplk.cognition.run/?sona_id=13111,"en-US,en;q=0.9",13111,416778381,,1451,sentence,I took a lot of photos of a geck I saw., ,I took a lot of photos of a geck I saw.,dodish,geck,NOT_FOUND,,,,,,,,,
,,,,,survey-text,128,347940,0.0-2.0-4.0-1.35-0.35,52,1,11/28/23 22:50,50853196e778b5ff033c04a66adaecea,139.140.221.234,"Mozilla/5.0 (Macintosh; Intel Mac OS X 10_15_7) AppleWebKit/537.36 (KHTML, like Gecko) Chrome/119.0.0.0 Safari/537.36",Macintosh,Chrome,119.0.0.0,OS X,10_15_7,https://dgbhklbplk.cognition.run/?sona_id=13111,"en-US,en;q=0.9",13111,416778381,,2468,attention,,geck,,dodish,geck,NOT_FOUND,1,,,,,,,,
,,,,,html-keyboard-response,129,349463,0.0-2.0-4.0-0.36,52,1,11/28/23 22:50,50853196e778b5ff033c04a66adaecea,139.140.221.234,"Mozilla/5.0 (Macintosh; Intel Mac OS X 10_15_7) AppleWebKit/537.36 (KHTML, like Gecko) Chrome/119.0.0.0 Safari/537.36",Macintosh,Chrome,119.0.0.0,OS X,10_15_7,https://dgbhklbplk.cognition.run/?sona_id=13111,"en-US,en;q=0.9",13111,416778381,,1518,sentence,Everybody would like to have a geck., ,Everybody would like to have a geck.,dodish,geck,NOT_FOUND,,,,,,,,,
,,,,,html-keyboard-response,130,351292,0.0-2.0-4.0-0.37,52,1,11/28/23 22:50,50853196e778b5ff033c04a66adaecea,139.140.221.234,"Mozilla/5.0 (Macintosh; Intel Mac OS X 10_15_7) AppleWebKit/537.36 (KHTML, like Gecko) Chrome/119.0.0.0 Safari/537.36",Macintosh,Chrome,119.0.0.0,OS X,10_15_7,https://dgbhklbplk.cognition.run/?sona_id=13111,"en-US,en;q=0.9",13111,416778381,,1826,sentence,"On the eleventh day of my trip, I found a dodish horse.", ,"On the eleventh day of my trip, I found a dodish horse.",dodish,NOT_FOUND,NOT_FOUND,,,,,,,,,
,,,,,html-keyboard-response,131,353679,0.0-2.0-4.0-0.38,52,1,11/28/23 22:50,50853196e778b5ff033c04a66adaecea,139.140.221.234,"Mozilla/5.0 (Macintosh; Intel Mac OS X 10_15_7) AppleWebKit/537.36 (KHTML, like Gecko) Chrome/119.0.0.0 Safari/537.36",Macintosh,Chrome,119.0.0.0,OS X,10_15_7,https://dgbhklbplk.cognition.run/?sona_id=13111,"en-US,en;q=0.9",13111,416778381,,2381,sentence,There was a mipp just a few steps from here., ,There was a mipp just a few steps from here.,mipp,NOT_FOUND,NOT_FOUND,,,,,,,,,
,,,,,html-keyboard-response,132,356270,0.0-2.0-4.0-0.39,52,1,11/28/23 22:50,50853196e778b5ff033c04a66adaecea,139.140.221.234,"Mozilla/5.0 (Macintosh; Intel Mac OS X 10_15_7) AppleWebKit/537.36 (KHTML, like Gecko) Chrome/119.0.0.0 Safari/537.36",Macintosh,Chrome,119.0.0.0,OS X,10_15_7,https://dgbhklbplk.cognition.run/?sona_id=13111,"en-US,en;q=0.9",13111,416778381,,2586,sentence,They also said that they would really like to see a geck., ,They also said that they would really like to see a geck.,dodish,geck,NOT_FOUND,,,,,,,,,
,,,,,instructions,133,367694,0.0-2.0-5.0,52,1,11/28/23 22:50,50853196e778b5ff033c04a66adaecea,139.140.221.234,"Mozilla/5.0 (Macintosh; Intel Mac OS X 10_15_7) AppleWebKit/537.36 (KHTML, like Gecko) Chrome/119.0.0.0 Safari/537.36",Macintosh,Chrome,119.0.0.0,OS X,10_15_7,https://dgbhklbplk.cognition.run/?sona_id=13111,"en-US,en;q=0.9",13111,416778381,"[{""page_index"":0,""viewing_time"":11419}]",11419,instructions,,,,,,,,,,,,,,,
,,,,,survey-text,134,375589,0.0-2.0-6.0-0.0,52,1,11/28/23 22:50,50853196e778b5ff033c04a66adaecea,139.140.221.234,"Mozilla/5.0 (Macintosh; Intel Mac OS X 10_15_7) AppleWebKit/537.36 (KHTML, like Gecko) Chrome/119.0.0.0 Safari/537.36",Macintosh,Chrome,119.0.0.0,OS X,10_15_7,https://dgbhklbplk.cognition.run/?sona_id=13111,"en-US,en;q=0.9",13111,416778381,,7891,association,,fan,,,,,,geck,,,,,,,
,,,,,survey-text,135,378767,0.0-2.0-6.0-0.1,52,1,11/28/23 22:50,50853196e778b5ff033c04a66adaecea,139.140.221.234,"Mozilla/5.0 (Macintosh; Intel Mac OS X 10_15_7) AppleWebKit/537.36 (KHTML, like Gecko) Chrome/119.0.0.0 Safari/537.36",Macintosh,Chrome,119.0.0.0,OS X,10_15_7,https://dgbhklbplk.cognition.run/?sona_id=13111,"en-US,en;q=0.9",13111,416778381,,3172,association,,sister,,,,,,mipp,,,,,,,
,,,,,survey-text,136,381918,0.0-2.0-6.0-0.2,52,1,11/28/23 22:50,50853196e778b5ff033c04a66adaecea,139.140.221.234,"Mozilla/5.0 (Macintosh; Intel Mac OS X 10_15_7) AppleWebKit/537.36 (KHTML, like Gecko) Chrome/119.0.0.0 Safari/537.36",Macintosh,Chrome,119.0.0.0,OS X,10_15_7,https://dgbhklbplk.cognition.run/?sona_id=13111,"en-US,en;q=0.9",13111,416778381,,3146,association,,horse,,,,,,dodish,,,,,,,
,,,,,survey-text,137,384443,0.0-2.0-6.0-0.3,52,1,11/28/23 22:50,50853196e778b5ff033c04a66adaecea,139.140.221.234,"Mozilla/5.0 (Macintosh; Intel Mac OS X 10_15_7) AppleWebKit/537.36 (KHTML, like Gecko) Chrome/119.0.0.0 Safari/537.36",Macintosh,Chrome,119.0.0.0,OS X,10_15_7,https://dgbhklbplk.cognition.run/?sona_id=13111,"en-US,en;q=0.9",13111,416778381,,2518,association,,apple,,,,,,foobly,,,,,,,
,,,,,survey-text,138,387233,0.0-2.0-6.0-0.4,52,1,11/28/23 22:50,50853196e778b5ff033c04a66adaecea,139.140.221.234,"Mozilla/5.0 (Macintosh; Intel Mac OS X 10_15_7) AppleWebKit/537.36 (KHTML, like Gecko) Chrome/119.0.0.0 Safari/537.36",Macintosh,Chrome,119.0.0.0,OS X,10_15_7,https://dgbhklbplk.cognition.run/?sona_id=13111,"en-US,en;q=0.9",13111,416778381,,2783,association,,apple,,,,,,foobly,,,,,,,
,,,,,survey-text,139,394269,0.0-2.0-6.0-0.5,52,1,11/28/23 22:50,50853196e778b5ff033c04a66adaecea,139.140.221.234,"Mozilla/5.0 (Macintosh; Intel Mac OS X 10_15_7) AppleWebKit/537.36 (KHTML, like Gecko) Chrome/119.0.0.0 Safari/537.36",Macintosh,Chrome,119.0.0.0,OS X,10_15_7,https://dgbhklbplk.cognition.run/?sona_id=13111,"en-US,en;q=0.9",13111,416778381,,7029,association,,want,,,,,,mipp,,,,,,,
,,,,,survey-text,140,396611,0.0-2.0-6.0-0.6,52,1,11/28/23 22:50,50853196e778b5ff033c04a66adaecea,139.140.221.234,"Mozilla/5.0 (Macintosh; Intel Mac OS X 10_15_7) AppleWebKit/537.36 (KHTML, like Gecko) Chrome/119.0.0.0 Safari/537.36",Macintosh,Chrome,119.0.0.0,OS X,10_15_7,https://dgbhklbplk.cognition.run/?sona_id=13111,"en-US,en;q=0.9",13111,416778381,,2335,association,,horse,,,,,,dodish,,,,,,,
,,,,,survey-text,141,399156,0.0-2.0-6.0-0.7,52,1,11/28/23 22:50,50853196e778b5ff033c04a66adaecea,139.140.221.234,"Mozilla/5.0 (Macintosh; Intel Mac OS X 10_15_7) AppleWebKit/537.36 (KHTML, like Gecko) Chrome/119.0.0.0 Safari/537.36",Macintosh,Chrome,119.0.0.0,OS X,10_15_7,https://dgbhklbplk.cognition.run/?sona_id=13111,"en-US,en;q=0.9",13111,416778381,,2539,association,,see,,,,,,geck,,,,,,,
,,,,,survey-text,142,400853,0.0-2.0-6.0-0.8,52,1,11/28/23 22:50,50853196e778b5ff033c04a66adaecea,139.140.221.234,"Mozilla/5.0 (Macintosh; Intel Mac OS X 10_15_7) AppleWebKit/537.36 (KHTML, like Gecko) Chrome/119.0.0.0 Safari/537.36",Macintosh,Chrome,119.0.0.0,OS X,10_15_7,https://dgbhklbplk.cognition.run/?sona_id=13111,"en-US,en;q=0.9",13111,416778381,,1690,association,,see,,,,,,geck,,,,,,,
,,,,,survey-text,143,403292,0.0-2.0-6.0-0.9,52,1,11/28/23 22:50,50853196e778b5ff033c04a66adaecea,139.140.221.234,"Mozilla/5.0 (Macintosh; Intel Mac OS X 10_15_7) AppleWebKit/537.36 (KHTML, like Gecko) Chrome/119.0.0.0 Safari/537.36",Macintosh,Chrome,119.0.0.0,OS X,10_15_7,https://dgbhklbplk.cognition.run/?sona_id=13111,"en-US,en;q=0.9",13111,416778381,,2433,association,,horse,,,,,,dodish,,,,,,,
,,,,,survey-text,144,405679,0.0-2.0-6.0-0.10,52,1,11/28/23 22:50,50853196e778b5ff033c04a66adaecea,139.140.221.234,"Mozilla/5.0 (Macintosh; Intel Mac OS X 10_15_7) AppleWebKit/537.36 (KHTML, like Gecko) Chrome/119.0.0.0 Safari/537.36",Macintosh,Chrome,119.0.0.0,OS X,10_15_7,https://dgbhklbplk.cognition.run/?sona_id=13111,"en-US,en;q=0.9",13111,416778381,,2381,association,,apple,,,,,,foobly,,,,,,,
,,,,,survey-text,145,413558,0.0-2.0-6.0-0.11,52,1,11/28/23 22:50,50853196e778b5ff033c04a66adaecea,139.140.221.234,"Mozilla/5.0 (Macintosh; Intel Mac OS X 10_15_7) AppleWebKit/537.36 (KHTML, like Gecko) Chrome/119.0.0.0 Safari/537.36",Macintosh,Chrome,119.0.0.0,OS X,10_15_7,https://dgbhklbplk.cognition.run/?sona_id=13111,"en-US,en;q=0.9",13111,416778381,,7872,association,,sister,,,,,,mipp,,,,,,,
,,,,,instructions,146,454530,0.0-3.0,52,1,11/28/23 22:50,50853196e778b5ff033c04a66adaecea,139.140.221.234,"Mozilla/5.0 (Macintosh; Intel Mac OS X 10_15_7) AppleWebKit/537.36 (KHTML, like Gecko) Chrome/119.0.0.0 Safari/537.36",Macintosh,Chrome,119.0.0.0,OS X,10_15_7,https://dgbhklbplk.cognition.run/?sona_id=13111,"en-US,en;q=0.9",13111,416778381,"[{""page_index"":0,""viewing_time"":33707},{""page_index"":1,""viewing_time"":5300},{""page_index"":2,""viewing_time"":1957}]",40965,instructions,,,,,,,,,,,,,,,
,,,,,html-keyboard-response,147,455037,0.0-4.0-0.0,52,1,11/28/23 22:50,50853196e778b5ff033c04a66adaecea,139.140.221.234,"Mozilla/5.0 (Macintosh; Intel Mac OS X 10_15_7) AppleWebKit/537.36 (KHTML, like Gecko) Chrome/119.0.0.0 Safari/537.36",Macintosh,Chrome,119.0.0.0,OS X,10_15_7,https://dgbhklbplk.cognition.run/?sona_id=13111,"en-US,en;q=0.9",13111,416778381,,null,fixation,<span style= 'font-size:170%'>+</span>,null,,,,,,,,,,,,,
,,,,,image-keyboard-response,148,455549,0.0-4.0-1.0,52,1,11/28/23 22:50,50853196e778b5ff033c04a66adaecea,139.140.221.234,"Mozilla/5.0 (Macintosh; Intel Mac OS X 10_15_7) AppleWebKit/537.36 (KHTML, like Gecko) Chrome/119.0.0.0 Safari/537.36",Macintosh,Chrome,119.0.0.0,OS X,10_15_7,https://dgbhklbplk.cognition.run/?sona_id=13111,"en-US,en;q=0.9",13111,416778381,,null,,applehorse.png,null,,,,,,,,,,,,,
,,,,,image-keyboard-response,149,455860,0.0-4.0-2.0,52,1,11/28/23 22:50,50853196e778b5ff033c04a66adaecea,139.140.221.234,"Mozilla/5.0 (Macintosh; Intel Mac OS X 10_15_7) AppleWebKit/537.36 (KHTML, like Gecko) Chrome/119.0.0.0 Safari/537.36",Macintosh,Chrome,119.0.0.0,OS X,10_15_7,https://dgbhklbplk.cognition.run/?sona_id=13111,"en-US,en;q=0.9",13111,416778381,,null,,applehorse.png,null,,,,,,,,,,,,,
,,,,,image-keyboard-response,150,456649,0.0-4.0-3.0,52,1,11/28/23 22:50,50853196e778b5ff033c04a66adaecea,139.140.221.234,"Mozilla/5.0 (Macintosh; Intel Mac OS X 10_15_7) AppleWebKit/537.36 (KHTML, like Gecko) Chrome/119.0.0.0 Safari/537.36",Macintosh,Chrome,119.0.0.0,OS X,10_15_7,https://dgbhklbplk.cognition.run/?sona_id=13111,"en-US,en;q=0.9",13111,416778381,,783,target,applehorse.png,l,,,,,TRUE,,horse,novel,nuppical,novel,L,practice,
,,,,,html-keyboard-response,151,457657,0.0-4.0-4.0,52,1,11/28/23 22:50,50853196e778b5ff033c04a66adaecea,139.140.221.234,"Mozilla/5.0 (Macintosh; Intel Mac OS X 10_15_7) AppleWebKit/537.36 (KHTML, like Gecko) Chrome/119.0.0.0 Safari/537.36",Macintosh,Chrome,119.0.0.0,OS X,10_15_7,https://dgbhklbplk.cognition.run/?sona_id=13111,"en-US,en;q=0.9",13111,416778381,,null,,Correct!,null,,,,,,,,,,,,,
,,,,,html-keyboard-response,152,458167,0.0-4.0-0.1,52,1,11/28/23 22:50,50853196e778b5ff033c04a66adaecea,139.140.221.234,"Mozilla/5.0 (Macintosh; Intel Mac OS X 10_15_7) AppleWebKit/537.36 (KHTML, like Gecko) Chrome/119.0.0.0 Safari/537.36",Macintosh,Chrome,119.0.0.0,OS X,10_15_7,https://dgbhklbplk.cognition.run/?sona_id=13111,"en-US,en;q=0.9",13111,416778381,,null,fixation,<span style= 'font-size:170%'>+</span>,null,,,,,,,,,,,,,
,,,,,image-keyboard-response,153,458679,0.0-4.0-1.1,52,1,11/28/23 22:50,50853196e778b5ff033c04a66adaecea,139.140.221.234,"Mozilla/5.0 (Macintosh; Intel Mac OS X 10_15_7) AppleWebKit/537.36 (KHTML, like Gecko) Chrome/119.0.0.0 Safari/537.36",Macintosh,Chrome,119.0.0.0,OS X,10_15_7,https://dgbhklbplk.cognition.run/?sona_id=13111,"en-US,en;q=0.9",13111,416778381,,null,,applehorse.png,null,,,,,,,,,,,,,
,,,,,image-keyboard-response,154,458992,0.0-4.0-2.1,52,1,11/28/23 22:50,50853196e778b5ff033c04a66adaecea,139.140.221.234,"Mozilla/5.0 (Macintosh; Intel Mac OS X 10_15_7) AppleWebKit/537.36 (KHTML, like Gecko) Chrome/119.0.0.0 Safari/537.36",Macintosh,Chrome,119.0.0.0,OS X,10_15_7,https://dgbhklbplk.cognition.run/?sona_id=13111,"en-US,en;q=0.9",13111,416778381,,null,,applehorse.png,null,,,,,,,,,,,,,
,,,,,image-keyboard-response,155,459503,0.0-4.0-3.1,52,1,11/28/23 22:50,50853196e778b5ff033c04a66adaecea,139.140.221.234,"Mozilla/5.0 (Macintosh; Intel Mac OS X 10_15_7) AppleWebKit/537.36 (KHTML, like Gecko) Chrome/119.0.0.0 Safari/537.36",Macintosh,Chrome,119.0.0.0,OS X,10_15_7,https://dgbhklbplk.cognition.run/?sona_id=13111,"en-US,en;q=0.9",13111,416778381,,504,target,applehorse.png,l,,,,,TRUE,,horse,novel,boff,novel,L,practice,
,,,,,html-keyboard-response,156,460513,0.0-4.0-4.1,52,1,11/28/23 22:50,50853196e778b5ff033c04a66adaecea,139.140.221.234,"Mozilla/5.0 (Macintosh; Intel Mac OS X 10_15_7) AppleWebKit/537.36 (KHTML, like Gecko) Chrome/119.0.0.0 Safari/537.36",Macintosh,Chrome,119.0.0.0,OS X,10_15_7,https://dgbhklbplk.cognition.run/?sona_id=13111,"en-US,en;q=0.9",13111,416778381,,null,,Correct!,null,,,,,,,,,,,,,
,,,,,html-keyboard-response,157,461023,0.0-4.0-0.2,52,1,11/28/23 22:50,50853196e778b5ff033c04a66adaecea,139.140.221.234,"Mozilla/5.0 (Macintosh; Intel Mac OS X 10_15_7) AppleWebKit/537.36 (KHTML, like Gecko) Chrome/119.0.0.0 Safari/537.36",Macintosh,Chrome,119.0.0.0,OS X,10_15_7,https://dgbhklbplk.cognition.run/?sona_id=13111,"en-US,en;q=0.9",13111,416778381,,null,fixation,<span style= 'font-size:170%'>+</span>,null,,,,,,,,,,,,,
,,,,,image-keyboard-response,158,461535,0.0-4.0-1.2,52,1,11/28/23 22:50,50853196e778b5ff033c04a66adaecea,139.140.221.234,"Mozilla/5.0 (Macintosh; Intel Mac OS X 10_15_7) AppleWebKit/537.36 (KHTML, like Gecko) Chrome/119.0.0.0 Safari/537.36",Macintosh,Chrome,119.0.0.0,OS X,10_15_7,https://dgbhklbplk.cognition.run/?sona_id=13111,"en-US,en;q=0.9",13111,416778381,,null,,horseapple.png,null,,,,,,,,,,,,,
,,,,,image-keyboard-response,159,461845,0.0-4.0-2.2,52,1,11/28/23 22:50,50853196e778b5ff033c04a66adaecea,139.140.221.234,"Mozilla/5.0 (Macintosh; Intel Mac OS X 10_15_7) AppleWebKit/537.36 (KHTML, like Gecko) Chrome/119.0.0.0 Safari/537.36",Macintosh,Chrome,119.0.0.0,OS X,10_15_7,https://dgbhklbplk.cognition.run/?sona_id=13111,"en-US,en;q=0.9",13111,416778381,,null,,horseapple.png,null,,,,,,,,,,,,,
,,,,,image-keyboard-response,160,462551,0.0-4.0-3.2,52,1,11/28/23 22:50,50853196e778b5ff033c04a66adaecea,139.140.221.234,"Mozilla/5.0 (Macintosh; Intel Mac OS X 10_15_7) AppleWebKit/537.36 (KHTML, like Gecko) Chrome/119.0.0.0 Safari/537.36",Macintosh,Chrome,119.0.0.0,OS X,10_15_7,https://dgbhklbplk.cognition.run/?sona_id=13111,"en-US,en;q=0.9",13111,416778381,,699,target,horseapple.png,l,,,,,TRUE,,apple,novel,nuppical,novel,L,practice,
,,,,,html-keyboard-response,161,463558,0.0-4.0-4.2,52,1,11/28/23 22:50,50853196e778b5ff033c04a66adaecea,139.140.221.234,"Mozilla/5.0 (Macintosh; Intel Mac OS X 10_15_7) AppleWebKit/537.36 (KHTML, like Gecko) Chrome/119.0.0.0 Safari/537.36",Macintosh,Chrome,119.0.0.0,OS X,10_15_7,https://dgbhklbplk.cognition.run/?sona_id=13111,"en-US,en;q=0.9",13111,416778381,,null,,Correct!,null,,,,,,,,,,,,,
,,,,,html-keyboard-response,162,464067,0.0-4.0-0.3,52,1,11/28/23 22:50,50853196e778b5ff033c04a66adaecea,139.140.221.234,"Mozilla/5.0 (Macintosh; Intel Mac OS X 10_15_7) AppleWebKit/537.36 (KHTML, like Gecko) Chrome/119.0.0.0 Safari/537.36",Macintosh,Chrome,119.0.0.0,OS X,10_15_7,https://dgbhklbplk.cognition.run/?sona_id=13111,"en-US,en;q=0.9",13111,416778381,,null,fixation,<span style= 'font-size:170%'>+</span>,null,,,,,,,,,,,,,
,,,,,image-keyboard-response,163,464577,0.0-4.0-1.3,52,1,11/28/23 22:50,50853196e778b5ff033c04a66adaecea,139.140.221.234,"Mozilla/5.0 (Macintosh; Intel Mac OS X 10_15_7) AppleWebKit/537.36 (KHTML, like Gecko) Chrome/119.0.0.0 Safari/537.36",Macintosh,Chrome,119.0.0.0,OS X,10_15_7,https://dgbhklbplk.cognition.run/?sona_id=13111,"en-US,en;q=0.9",13111,416778381,,null,,horseapple.png,null,,,,,,,,,,,,,
,,,,,image-keyboard-response,164,464889,0.0-4.0-2.3,52,1,11/28/23 22:50,50853196e778b5ff033c04a66adaecea,139.140.221.234,"Mozilla/5.0 (Macintosh; Intel Mac OS X 10_15_7) AppleWebKit/537.36 (KHTML, like Gecko) Chrome/119.0.0.0 Safari/537.36",Macintosh,Chrome,119.0.0.0,OS X,10_15_7,https://dgbhklbplk.cognition.run/?sona_id=13111,"en-US,en;q=0.9",13111,416778381,,null,,horseapple.png,null,,,,,,,,,,,,,
,,,,,image-keyboard-response,165,465424,0.0-4.0-3.3,52,1,11/28/23 22:50,50853196e778b5ff033c04a66adaecea,139.140.221.234,"Mozilla/5.0 (Macintosh; Intel Mac OS X 10_15_7) AppleWebKit/537.36 (KHTML, like Gecko) Chrome/119.0.0.0 Safari/537.36",Macintosh,Chrome,119.0.0.0,OS X,10_15_7,https://dgbhklbplk.cognition.run/?sona_id=13111,"en-US,en;q=0.9",13111,416778381,,527,target,horseapple.png,l,,,,,TRUE,,apple,novel,nuppical,novel,L,practice,
,,,,,html-keyboard-response,166,466436,0.0-4.0-4.3,52,1,11/28/23 22:50,50853196e778b5ff033c04a66adaecea,139.140.221.234,"Mozilla/5.0 (Macintosh; Intel Mac OS X 10_15_7) AppleWebKit/537.36 (KHTML, like Gecko) Chrome/119.0.0.0 Safari/537.36",Macintosh,Chrome,119.0.0.0,OS X,10_15_7,https://dgbhklbplk.cognition.run/?sona_id=13111,"en-US,en;q=0.9",13111,416778381,,null,,Correct!,null,,,,,,,,,,,,,
,,,,,html-keyboard-response,167,466946,0.0-4.0-0.4,52,1,11/28/23 22:50,50853196e778b5ff033c04a66adaecea,139.140.221.234,"Mozilla/5.0 (Macintosh; Intel Mac OS X 10_15_7) AppleWebKit/537.36 (KHTML, like Gecko) Chrome/119.0.0.0 Safari/537.36",Macintosh,Chrome,119.0.0.0,OS X,10_15_7,https://dgbhklbplk.cognition.run/?sona_id=13111,"en-US,en;q=0.9",13111,416778381,,null,fixation,<span style= 'font-size:170%'>+</span>,null,,,,,,,,,,,,,
,,,,,image-keyboard-response,168,467455,0.0-4.0-1.4,52,1,11/28/23 22:50,50853196e778b5ff033c04a66adaecea,139.140.221.234,"Mozilla/5.0 (Macintosh; Intel Mac OS X 10_15_7) AppleWebKit/537.36 (KHTML, like Gecko) Chrome/119.0.0.0 Safari/537.36",Macintosh,Chrome,119.0.0.0,OS X,10_15_7,https://dgbhklbplk.cognition.run/?sona_id=13111,"en-US,en;q=0.9",13111,416778381,,null,,applehorse.png,null,,,,,,,,,,,,,
,,,,,image-keyboard-response,169,467766,0.0-4.0-2.4,52,1,11/28/23 22:50,50853196e778b5ff033c04a66adaecea,139.140.221.234,"Mozilla/5.0 (Macintosh; Intel Mac OS X 10_15_7) AppleWebKit/537.36 (KHTML, like Gecko) Chrome/119.0.0.0 Safari/537.36",Macintosh,Chrome,119.0.0.0,OS X,10_15_7,https://dgbhklbplk.cognition.run/?sona_id=13111,"en-US,en;q=0.9",13111,416778381,,null,,applehorse.png,null,,,,,,,,,,,,,
,,,,,image-keyboard-response,170,468362,0.0-4.0-3.4,52,1,11/28/23 22:50,50853196e778b5ff033c04a66adaecea,139.140.221.234,"Mozilla/5.0 (Macintosh; Intel Mac OS X 10_15_7) AppleWebKit/537.36 (KHTML, like Gecko) Chrome/119.0.0.0 Safari/537.36",Macintosh,Chrome,119.0.0.0,OS X,10_15_7,https://dgbhklbplk.cognition.run/?sona_id=13111,"en-US,en;q=0.9",13111,416778381,,589,target,applehorse.png,l,,,,,TRUE,,horse,novel,boff,novel,L,practice,
,,,,,html-keyboard-response,171,469370,0.0-4.0-4.4,52,1,11/28/23 22:50,50853196e778b5ff033c04a66adaecea,139.140.221.234,"Mozilla/5.0 (Macintosh; Intel Mac OS X 10_15_7) AppleWebKit/537.36 (KHTML, like Gecko) Chrome/119.0.0.0 Safari/537.36",Macintosh,Chrome,119.0.0.0,OS X,10_15_7,https://dgbhklbplk.cognition.run/?sona_id=13111,"en-US,en;q=0.9",13111,416778381,,null,,Correct!,null,,,,,,,,,,,,,
,,,,,html-keyboard-response,172,469878,0.0-4.0-0.5,52,1,11/28/23 22:50,50853196e778b5ff033c04a66adaecea,139.140.221.234,"Mozilla/5.0 (Macintosh; Intel Mac OS X 10_15_7) AppleWebKit/537.36 (KHTML, like Gecko) Chrome/119.0.0.0 Safari/537.36",Macintosh,Chrome,119.0.0.0,OS X,10_15_7,https://dgbhklbplk.cognition.run/?sona_id=13111,"en-US,en;q=0.9",13111,416778381,,null,fixation,<span style= 'font-size:170%'>+</span>,null,,,,,,,,,,,,,
,,,,,image-keyboard-response,173,470392,0.0-4.0-1.5,52,1,11/28/23 22:50,50853196e778b5ff033c04a66adaecea,139.140.221.234,"Mozilla/5.0 (Macintosh; Intel Mac OS X 10_15_7) AppleWebKit/537.36 (KHTML, like Gecko) Chrome/119.0.0.0 Safari/537.36",Macintosh,Chrome,119.0.0.0,OS X,10_15_7,https://dgbhklbplk.cognition.run/?sona_id=13111,"en-US,en;q=0.9",13111,416778381,,null,,applehorse.png,null,,,,,,,,,,,,,
,,,,,image-keyboard-response,174,470702,0.0-4.0-2.5,52,1,11/28/23 22:50,50853196e778b5ff033c04a66adaecea,139.140.221.234,"Mozilla/5.0 (Macintosh; Intel Mac OS X 10_15_7) AppleWebKit/537.36 (KHTML, like Gecko) Chrome/119.0.0.0 Safari/537.36",Macintosh,Chrome,119.0.0.0,OS X,10_15_7,https://dgbhklbplk.cognition.run/?sona_id=13111,"en-US,en;q=0.9",13111,416778381,,null,,applehorse.png,null,,,,,,,,,,,,,
,,,,,image-keyboard-response,175,471310,0.0-4.0-3.5,52,1,11/28/23 22:50,50853196e778b5ff033c04a66adaecea,139.140.221.234,"Mozilla/5.0 (Macintosh; Intel Mac OS X 10_15_7) AppleWebKit/537.36 (KHTML, like Gecko) Chrome/119.0.0.0 Safari/537.36",Macintosh,Chrome,119.0.0.0,OS X,10_15_7,https://dgbhklbplk.cognition.run/?sona_id=13111,"en-US,en;q=0.9",13111,416778381,,601,target,applehorse.png,a,,,,,TRUE,,apple,novel,boff,novel,A,practice,
,,,,,html-keyboard-response,176,472321,0.0-4.0-4.5,52,1,11/28/23 22:50,50853196e778b5ff033c04a66adaecea,139.140.221.234,"Mozilla/5.0 (Macintosh; Intel Mac OS X 10_15_7) AppleWebKit/537.36 (KHTML, like Gecko) Chrome/119.0.0.0 Safari/537.36",Macintosh,Chrome,119.0.0.0,OS X,10_15_7,https://dgbhklbplk.cognition.run/?sona_id=13111,"en-US,en;q=0.9",13111,416778381,,null,,Correct!,null,,,,,,,,,,,,,
,,,,,html-keyboard-response,177,472833,0.0-4.0-0.6,52,1,11/28/23 22:50,50853196e778b5ff033c04a66adaecea,139.140.221.234,"Mozilla/5.0 (Macintosh; Intel Mac OS X 10_15_7) AppleWebKit/537.36 (KHTML, like Gecko) Chrome/119.0.0.0 Safari/537.36",Macintosh,Chrome,119.0.0.0,OS X,10_15_7,https://dgbhklbplk.cognition.run/?sona_id=13111,"en-US,en;q=0.9",13111,416778381,,null,fixation,<span style= 'font-size:170%'>+</span>,null,,,,,,,,,,,,,
,,,,,image-keyboard-response,178,473345,0.0-4.0-1.6,52,1,11/28/23 22:50,50853196e778b5ff033c04a66adaecea,139.140.221.234,"Mozilla/5.0 (Macintosh; Intel Mac OS X 10_15_7) AppleWebKit/537.36 (KHTML, like Gecko) Chrome/119.0.0.0 Safari/537.36",Macintosh,Chrome,119.0.0.0,OS X,10_15_7,https://dgbhklbplk.cognition.run/?sona_id=13111,"en-US,en;q=0.9",13111,416778381,,null,,applehorse.png,null,,,,,,,,,,,,,
,,,,,image-keyboard-response,179,473657,0.0-4.0-2.6,52,1,11/28/23 22:50,50853196e778b5ff033c04a66adaecea,139.140.221.234,"Mozilla/5.0 (Macintosh; Intel Mac OS X 10_15_7) AppleWebKit/537.36 (KHTML, like Gecko) Chrome/119.0.0.0 Safari/537.36",Macintosh,Chrome,119.0.0.0,OS X,10_15_7,https://dgbhklbplk.cognition.run/?sona_id=13111,"en-US,en;q=0.9",13111,416778381,,null,,applehorse.png,null,,,,,,,,,,,,,
,,,,,image-keyboard-response,180,474131,0.0-4.0-3.6,52,1,11/28/23 22:50,50853196e778b5ff033c04a66adaecea,139.140.221.234,"Mozilla/5.0 (Macintosh; Intel Mac OS X 10_15_7) AppleWebKit/537.36 (KHTML, like Gecko) Chrome/119.0.0.0 Safari/537.36",Macintosh,Chrome,119.0.0.0,OS X,10_15_7,https://dgbhklbplk.cognition.run/?sona_id=13111,"en-US,en;q=0.9",13111,416778381,,466,target,applehorse.png,a,,,,,TRUE,,apple,novel,boff,novel,A,practice,
,,,,,html-keyboard-response,181,475139,0.0-4.0-4.6,52,1,11/28/23 22:50,50853196e778b5ff033c04a66adaecea,139.140.221.234,"Mozilla/5.0 (Macintosh; Intel Mac OS X 10_15_7) AppleWebKit/537.36 (KHTML, like Gecko) Chrome/119.0.0.0 Safari/537.36",Macintosh,Chrome,119.0.0.0,OS X,10_15_7,https://dgbhklbplk.cognition.run/?sona_id=13111,"en-US,en;q=0.9",13111,416778381,,null,,Correct!,null,,,,,,,,,,,,,
,,,,,html-keyboard-response,182,475649,0.0-4.0-0.7,52,1,11/28/23 22:50,50853196e778b5ff033c04a66adaecea,139.140.221.234,"Mozilla/5.0 (Macintosh; Intel Mac OS X 10_15_7) AppleWebKit/537.36 (KHTML, like Gecko) Chrome/119.0.0.0 Safari/537.36",Macintosh,Chrome,119.0.0.0,OS X,10_15_7,https://dgbhklbplk.cognition.run/?sona_id=13111,"en-US,en;q=0.9",13111,416778381,,null,fixation,<span style= 'font-size:170%'>+</span>,null,,,,,,,,,,,,,
,,,,,image-keyboard-response,183,476162,0.0-4.0-1.7,52,1,11/28/23 22:50,50853196e778b5ff033c04a66adaecea,139.140.221.234,"Mozilla/5.0 (Macintosh; Intel Mac OS X 10_15_7) AppleWebKit/537.36 (KHTML, like Gecko) Chrome/119.0.0.0 Safari/537.36",Macintosh,Chrome,119.0.0.0,OS X,10_15_7,https://dgbhklbplk.cognition.run/?sona_id=13111,"en-US,en;q=0.9",13111,416778381,,null,,applehorse.png,null,,,,,,,,,,,,,
,,,,,image-keyboard-response,184,476476,0.0-4.0-2.7,52,1,11/28/23 22:50,50853196e778b5ff033c04a66adaecea,139.140.221.234,"Mozilla/5.0 (Macintosh; Intel Mac OS X 10_15_7) AppleWebKit/537.36 (KHTML, like Gecko) Chrome/119.0.0.0 Safari/537.36",Macintosh,Chrome,119.0.0.0,OS X,10_15_7,https://dgbhklbplk.cognition.run/?sona_id=13111,"en-US,en;q=0.9",13111,416778381,,null,,applehorse.png,null,,,,,,,,,,,,,
,,,,,image-keyboard-response,185,476993,0.0-4.0-3.7,52,1,11/28/23 22:50,50853196e778b5ff033c04a66adaecea,139.140.221.234,"Mozilla/5.0 (Macintosh; Intel Mac OS X 10_15_7) AppleWebKit/537.36 (KHTML, like Gecko) Chrome/119.0.0.0 Safari/537.36",Macintosh,Chrome,119.0.0.0,OS X,10_15_7,https://dgbhklbplk.cognition.run/?sona_id=13111,"en-US,en;q=0.9",13111,416778381,,509,target,applehorse.png,l,,,,,TRUE,,horse,novel,nuppical,novel,L,practice,
,,,,,html-keyboard-response,186,478005,0.0-4.0-4.7,52,1,11/28/23 22:50,50853196e778b5ff033c04a66adaecea,139.140.221.234,"Mozilla/5.0 (Macintosh; Intel Mac OS X 10_15_7) AppleWebKit/537.36 (KHTML, like Gecko) Chrome/119.0.0.0 Safari/537.36",Macintosh,Chrome,119.0.0.0,OS X,10_15_7,https://dgbhklbplk.cognition.run/?sona_id=13111,"en-US,en;q=0.9",13111,416778381,,null,,Correct!,null,,,,,,,,,,,,,
,,,,,html-keyboard-response,187,478518,0.0-5.0-0.0-0.0,52,1,11/28/23 22:50,50853196e778b5ff033c04a66adaecea,139.140.221.234,"Mozilla/5.0 (Macintosh; Intel Mac OS X 10_15_7) AppleWebKit/537.36 (KHTML, like Gecko) Chrome/119.0.0.0 Safari/537.36",Macintosh,Chrome,119.0.0.0,OS X,10_15_7,https://dgbhklbplk.cognition.run/?sona_id=13111,"en-US,en;q=0.9",13111,416778381,,null,fixation,<span style= 'font-size:170%'>+</span>,null,,,,,,,,,,,,,
,,,,,image-keyboard-response,188,479026,0.0-5.0-0.0-1.0,52,1,11/28/23 22:50,50853196e778b5ff033c04a66adaecea,139.140.221.234,"Mozilla/5.0 (Macintosh; Intel Mac OS X 10_15_7) AppleWebKit/537.36 (KHTML, like Gecko) Chrome/119.0.0.0 Safari/537.36",Macintosh,Chrome,119.0.0.0,OS X,10_15_7,https://dgbhklbplk.cognition.run/?sona_id=13111,"en-US,en;q=0.9",13111,416778381,,null,,applehorse.png,null,,,,,,,,,,,,,
,,,,,image-keyboard-response,189,479336,0.0-5.0-0.0-2.0,52,1,11/28/23 22:50,50853196e778b5ff033c04a66adaecea,139.140.221.234,"Mozilla/5.0 (Macintosh; Intel Mac OS X 10_15_7) AppleWebKit/537.36 (KHTML, like Gecko) Chrome/119.0.0.0 Safari/537.36",Macintosh,Chrome,119.0.0.0,OS X,10_15_7,https://dgbhklbplk.cognition.run/?sona_id=13111,"en-US,en;q=0.9",13111,416778381,,null,,applehorse.png,null,,,,,,,,,,,,,
,,,,,image-keyboard-response,190,479904,0.0-5.0-0.0-3.0,52,1,11/28/23 22:50,50853196e778b5ff033c04a66adaecea,139.140.221.234,"Mozilla/5.0 (Macintosh; Intel Mac OS X 10_15_7) AppleWebKit/537.36 (KHTML, like Gecko) Chrome/119.0.0.0 Safari/537.36",Macintosh,Chrome,119.0.0.0,OS X,10_15_7,https://dgbhklbplk.cognition.run/?sona_id=13111,"en-US,en;q=0.9",13111,416778381,,562,target,applehorse.png,a,,,,,TRUE,,apple,direct,dodish,unrelated,A,1,
,,,,,html-keyboard-response,191,480413,0.0-5.0-0.0-0.1,52,1,11/28/23 22:50,50853196e778b5ff033c04a66adaecea,139.140.221.234,"Mozilla/5.0 (Macintosh; Intel Mac OS X 10_15_7) AppleWebKit/537.36 (KHTML, like Gecko) Chrome/119.0.0.0 Safari/537.36",Macintosh,Chrome,119.0.0.0,OS X,10_15_7,https://dgbhklbplk.cognition.run/?sona_id=13111,"en-US,en;q=0.9",13111,416778381,,null,fixation,<span style= 'font-size:170%'>+</span>,null,,,,,,,,,,,,,
,,,,,image-keyboard-response,192,480926,0.0-5.0-0.0-1.1,52,1,11/28/23 22:50,50853196e778b5ff033c04a66adaecea,139.140.221.234,"Mozilla/5.0 (Macintosh; Intel Mac OS X 10_15_7) AppleWebKit/537.36 (KHTML, like Gecko) Chrome/119.0.0.0 Safari/537.36",Macintosh,Chrome,119.0.0.0,OS X,10_15_7,https://dgbhklbplk.cognition.run/?sona_id=13111,"en-US,en;q=0.9",13111,416778381,,null,,horseapple.png,null,,,,,,,,,,,,,
,,,,,image-keyboard-response,193,481239,0.0-5.0-0.0-2.1,52,1,11/28/23 22:50,50853196e778b5ff033c04a66adaecea,139.140.221.234,"Mozilla/5.0 (Macintosh; Intel Mac OS X 10_15_7) AppleWebKit/537.36 (KHTML, like Gecko) Chrome/119.0.0.0 Safari/537.36",Macintosh,Chrome,119.0.0.0,OS X,10_15_7,https://dgbhklbplk.cognition.run/?sona_id=13111,"en-US,en;q=0.9",13111,416778381,,null,,horseapple.png,null,,,,,,,,,,,,,
,,,,,image-keyboard-response,194,482025,0.0-5.0-0.0-3.1,52,1,11/28/23 22:50,50853196e778b5ff033c04a66adaecea,139.140.221.234,"Mozilla/5.0 (Macintosh; Intel Mac OS X 10_15_7) AppleWebKit/537.36 (KHTML, like Gecko) Chrome/119.0.0.0 Safari/537.36",Macintosh,Chrome,119.0.0.0,OS X,10_15_7,https://dgbhklbplk.cognition.run/?sona_id=13111,"en-US,en;q=0.9",13111,416778381,,777,target,horseapple.png,a,,,,,TRUE,,horse,direct,galloping,related,A,1,
,,,,,html-keyboard-response,195,482532,0.0-5.0-0.0-0.2,52,1,11/28/23 22:50,50853196e778b5ff033c04a66adaecea,139.140.221.234,"Mozilla/5.0 (Macintosh; Intel Mac OS X 10_15_7) AppleWebKit/537.36 (KHTML, like Gecko) Chrome/119.0.0.0 Safari/537.36",Macintosh,Chrome,119.0.0.0,OS X,10_15_7,https://dgbhklbplk.cognition.run/?sona_id=13111,"en-US,en;q=0.9",13111,416778381,,null,fixation,<span style= 'font-size:170%'>+</span>,null,,,,,,,,,,,,,
,,,,,image-keyboard-response,196,483041,0.0-5.0-0.0-1.2,52,1,11/28/23 22:50,50853196e778b5ff033c04a66adaecea,139.140.221.234,"Mozilla/5.0 (Macintosh; Intel Mac OS X 10_15_7) AppleWebKit/537.36 (KHTML, like Gecko) Chrome/119.0.0.0 Safari/537.36",Macintosh,Chrome,119.0.0.0,OS X,10_15_7,https://dgbhklbplk.cognition.run/?sona_id=13111,"en-US,en;q=0.9",13111,416778381,,null,,applehorse.png,null,,,,,,,,,,,,,
,,,,,image-keyboard-response,197,483353,0.0-5.0-0.0-2.2,52,1,11/28/23 22:50,50853196e778b5ff033c04a66adaecea,139.140.221.234,"Mozilla/5.0 (Macintosh; Intel Mac OS X 10_15_7) AppleWebKit/537.36 (KHTML, like Gecko) Chrome/119.0.0.0 Safari/537.36",Macintosh,Chrome,119.0.0.0,OS X,10_15_7,https://dgbhklbplk.cognition.run/?sona_id=13111,"en-US,en;q=0.9",13111,416778381,,null,,applehorse.png,null,,,,,,,,,,,,,
,,,,,image-keyboard-response,198,483890,0.0-5.0-0.0-3.2,52,1,11/28/23 22:50,50853196e778b5ff033c04a66adaecea,139.140.221.234,"Mozilla/5.0 (Macintosh; Intel Mac OS X 10_15_7) AppleWebKit/537.36 (KHTML, like Gecko) Chrome/119.0.0.0 Safari/537.36",Macintosh,Chrome,119.0.0.0,OS X,10_15_7,https://dgbhklbplk.cognition.run/?sona_id=13111,"en-US,en;q=0.9",13111,416778381,,529,target,applehorse.png,l,,,,,TRUE,,horse,novel,nuppical,novel,L,1,
,,,,,html-keyboard-response,199,484397,0.0-5.0-0.0-0.3,52,1,11/28/23 22:50,50853196e778b5ff033c04a66adaecea,139.140.221.234,"Mozilla/5.0 (Macintosh; Intel Mac OS X 10_15_7) AppleWebKit/537.36 (KHTML, like Gecko) Chrome/119.0.0.0 Safari/537.36",Macintosh,Chrome,119.0.0.0,OS X,10_15_7,https://dgbhklbplk.cognition.run/?sona_id=13111,"en-US,en;q=0.9",13111,416778381,,null,fixation,<span style= 'font-size:170%'>+</span>,null,,,,,,,,,,,,,
,,,,,image-keyboard-response,200,484910,0.0-5.0-0.0-1.3,52,1,11/28/23 22:50,50853196e778b5ff033c04a66adaecea,139.140.221.234,"Mozilla/5.0 (Macintosh; Intel Mac OS X 10_15_7) AppleWebKit/537.36 (KHTML, like Gecko) Chrome/119.0.0.0 Safari/537.36",Macintosh,Chrome,119.0.0.0,OS X,10_15_7,https://dgbhklbplk.cognition.run/?sona_id=13111,"en-US,en;q=0.9",13111,416778381,,null,,applehorse.png,null,,,,,,,,,,,,,
,,,,,image-keyboard-response,201,485224,0.0-5.0-0.0-2.3,52,1,11/28/23 22:50,50853196e778b5ff033c04a66adaecea,139.140.221.234,"Mozilla/5.0 (Macintosh; Intel Mac OS X 10_15_7) AppleWebKit/537.36 (KHTML, like Gecko) Chrome/119.0.0.0 Safari/537.36",Macintosh,Chrome,119.0.0.0,OS X,10_15_7,https://dgbhklbplk.cognition.run/?sona_id=13111,"en-US,en;q=0.9",13111,416778381,,null,,applehorse.png,null,,,,,,,,,,,,,
,,,,,image-keyboard-response,202,485842,0.0-5.0-0.0-3.3,52,1,11/28/23 22:50,50853196e778b5ff033c04a66adaecea,139.140.221.234,"Mozilla/5.0 (Macintosh; Intel Mac OS X 10_15_7) AppleWebKit/537.36 (KHTML, like Gecko) Chrome/119.0.0.0 Safari/537.36",Macintosh,Chrome,119.0.0.0,OS X,10_15_7,https://dgbhklbplk.cognition.run/?sona_id=13111,"en-US,en;q=0.9",13111,416778381,,611,target,applehorse.png,a,,,,,TRUE,,apple,direct,caramelizing,related,A,1,
,,,,,html-keyboard-response,203,486350,0.0-5.0-0.0-0.4,52,1,11/28/23 22:50,50853196e778b5ff033c04a66adaecea,139.140.221.234,"Mozilla/5.0 (Macintosh; Intel Mac OS X 10_15_7) AppleWebKit/537.36 (KHTML, like Gecko) Chrome/119.0.0.0 Safari/537.36",Macintosh,Chrome,119.0.0.0,OS X,10_15_7,https://dgbhklbplk.cognition.run/?sona_id=13111,"en-US,en;q=0.9",13111,416778381,,null,fixation,<span style= 'font-size:170%'>+</span>,null,,,,,,,,,,,,,
,,,,,image-keyboard-response,204,486863,0.0-5.0-0.0-1.4,52,1,11/28/23 22:50,50853196e778b5ff033c04a66adaecea,139.140.221.234,"Mozilla/5.0 (Macintosh; Intel Mac OS X 10_15_7) AppleWebKit/537.36 (KHTML, like Gecko) Chrome/119.0.0.0 Safari/537.36",Macintosh,Chrome,119.0.0.0,OS X,10_15_7,https://dgbhklbplk.cognition.run/?sona_id=13111,"en-US,en;q=0.9",13111,416778381,,null,,applehorse.png,null,,,,,,,,,,,,,
,,,,,image-keyboard-response,205,487176,0.0-5.0-0.0-2.4,52,1,11/28/23 22:50,50853196e778b5ff033c04a66adaecea,139.140.221.234,"Mozilla/5.0 (Macintosh; Intel Mac OS X 10_15_7) AppleWebKit/537.36 (KHTML, like Gecko) Chrome/119.0.0.0 Safari/537.36",Macintosh,Chrome,119.0.0.0,OS X,10_15_7,https://dgbhklbplk.cognition.run/?sona_id=13111,"en-US,en;q=0.9",13111,416778381,,null,,applehorse.png,null,,,,,,,,,,,,,
,,,,,image-keyboard-response,206,487651,0.0-5.0-0.0-3.4,52,1,11/28/23 22:50,50853196e778b5ff033c04a66adaecea,139.140.221.234,"Mozilla/5.0 (Macintosh; Intel Mac OS X 10_15_7) AppleWebKit/537.36 (KHTML, like Gecko) Chrome/119.0.0.0 Safari/537.36",Macintosh,Chrome,119.0.0.0,OS X,10_15_7,https://dgbhklbplk.cognition.run/?sona_id=13111,"en-US,en;q=0.9",13111,416778381,,469,target,applehorse.png,l,,,,,TRUE,,horse,direct,lenient,unrelated,L,1,
,,,,,html-keyboard-response,207,488158,0.0-5.0-0.0-0.5,52,1,11/28/23 22:50,50853196e778b5ff033c04a66adaecea,139.140.221.234,"Mozilla/5.0 (Macintosh; Intel Mac OS X 10_15_7) AppleWebKit/537.36 (KHTML, like Gecko) Chrome/119.0.0.0 Safari/537.36",Macintosh,Chrome,119.0.0.0,OS X,10_15_7,https://dgbhklbplk.cognition.run/?sona_id=13111,"en-US,en;q=0.9",13111,416778381,,null,fixation,<span style= 'font-size:170%'>+</span>,null,,,,,,,,,,,,,
,,,,,image-keyboard-response,208,488673,0.0-5.0-0.0-1.5,52,1,11/28/23 22:50,50853196e778b5ff033c04a66adaecea,139.140.221.234,"Mozilla/5.0 (Macintosh; Intel Mac OS X 10_15_7) AppleWebKit/537.36 (KHTML, like Gecko) Chrome/119.0.0.0 Safari/537.36",Macintosh,Chrome,119.0.0.0,OS X,10_15_7,https://dgbhklbplk.cognition.run/?sona_id=13111,"en-US,en;q=0.9",13111,416778381,,null,,horseapple.png,null,,,,,,,,,,,,,
,,,,,image-keyboard-response,209,488985,0.0-5.0-0.0-2.5,52,1,11/28/23 22:50,50853196e778b5ff033c04a66adaecea,139.140.221.234,"Mozilla/5.0 (Macintosh; Intel Mac OS X 10_15_7) AppleWebKit/537.36 (KHTML, like Gecko) Chrome/119.0.0.0 Safari/537.36",Macintosh,Chrome,119.0.0.0,OS X,10_15_7,https://dgbhklbplk.cognition.run/?sona_id=13111,"en-US,en;q=0.9",13111,416778381,,null,,horseapple.png,null,,,,,,,,,,,,,
,,,,,image-keyboard-response,210,489490,0.0-5.0-0.0-3.5,52,1,11/28/23 22:50,50853196e778b5ff033c04a66adaecea,139.140.221.234,"Mozilla/5.0 (Macintosh; Intel Mac OS X 10_15_7) AppleWebKit/537.36 (KHTML, like Gecko) Chrome/119.0.0.0 Safari/537.36",Macintosh,Chrome,119.0.0.0,OS X,10_15_7,https://dgbhklbplk.cognition.run/?sona_id=13111,"en-US,en;q=0.9",13111,416778381,,498,target,horseapple.png,l,,,,,TRUE,,apple,novel,boff,novel,L,1,
,,,,,html-keyboard-response,211,489997,0.0-5.0-0.0-0.6,52,1,11/28/23 22:50,50853196e778b5ff033c04a66adaecea,139.140.221.234,"Mozilla/5.0 (Macintosh; Intel Mac OS X 10_15_7) AppleWebKit/537.36 (KHTML, like Gecko) Chrome/119.0.0.0 Safari/537.36",Macintosh,Chrome,119.0.0.0,OS X,10_15_7,https://dgbhklbplk.cognition.run/?sona_id=13111,"en-US,en;q=0.9",13111,416778381,,null,fixation,<span style= 'font-size:170%'>+</span>,null,,,,,,,,,,,,,
