success,timeout,failed_images,failed_audio,failed_video,trial_type,trial_index,time_elapsed,internal_node_id,run_id,condition,recorded_at,source_code_version,ip,user_agent,device,browser,browser_version,platform,platform_version,referer,accept_language,sona_id,ID,view_history,rt,typeoftrial,stimulus,response,revised_response,sentence,novel1,novel2,novel3,cue,target,type,prime,relatedness,cooccurrence,correct_key,block_number,correct,revised_correct,question_order
TRUE,FALSE,[],[],[],preload,0,1174,0.0-0.0,43,1,11/24/23 19:44,50853196e778b5ff033c04a66adaecea,209.133.103.166,"Mozilla/5.0 (Macintosh; Intel Mac OS X 10_15_7) AppleWebKit/537.36 (KHTML, like Gecko) Chrome/119.0.0.0 Safari/537.36",Macintosh,Chrome,119.0.0.0,OS X,10_15_7,https://dgbhklbplk.cognition.run/?sona_id=13152,"en-US,en;q=0.9,fr;q=0.8",13152,219400229,,,,,,,,,,,,,,,,,,,,,
,,,,,instructions,1,5091,0.0-1.0,43,1,11/24/23 19:44,50853196e778b5ff033c04a66adaecea,209.133.103.166,"Mozilla/5.0 (Macintosh; Intel Mac OS X 10_15_7) AppleWebKit/537.36 (KHTML, like Gecko) Chrome/119.0.0.0 Safari/537.36",Macintosh,Chrome,119.0.0.0,OS X,10_15_7,https://dgbhklbplk.cognition.run/?sona_id=13152,"en-US,en;q=0.9,fr;q=0.8",13152,219400229,"[{""page_index"":0,""viewing_time"":1831},{""page_index"":1,""viewing_time"":1225},{""page_index"":2,""viewing_time"":858}]",3915,instructions,,,,,,,,,,,,,,,,,,
,,,,,html-keyboard-response,2,10098,0.0-2.0-0.0-0.0,43,1,11/24/23 19:44,50853196e778b5ff033c04a66adaecea,209.133.103.166,"Mozilla/5.0 (Macintosh; Intel Mac OS X 10_15_7) AppleWebKit/537.36 (KHTML, like Gecko) Chrome/119.0.0.0 Safari/537.36",Macintosh,Chrome,119.0.0.0,OS X,10_15_7,https://dgbhklbplk.cognition.run/?sona_id=13152,"en-US,en;q=0.9,fr;q=0.8",13152,219400229,,null,sentence,Sometimes I wish it were easier to get a mipp.,null,null,Sometimes I wish it were easier to get a mipp.,mipp,NOT_FOUND,NOT_FOUND,,,,,,,,,,,
,,,,,html-keyboard-response,3,15105,0.0-2.0-0.0-0.1,43,1,11/24/23 19:44,50853196e778b5ff033c04a66adaecea,209.133.103.166,"Mozilla/5.0 (Macintosh; Intel Mac OS X 10_15_7) AppleWebKit/537.36 (KHTML, like Gecko) Chrome/119.0.0.0 Safari/537.36",Macintosh,Chrome,119.0.0.0,OS X,10_15_7,https://dgbhklbplk.cognition.run/?sona_id=13152,"en-US,en;q=0.9,fr;q=0.8",13152,219400229,,null,sentence,I am not sure if I would like a dodish horse better.,null,null,I am not sure if I would like a dodish horse better.,dodish,NOT_FOUND,NOT_FOUND,,,,,,,,,,,
,,,,,html-keyboard-response,4,20112,0.0-2.0-0.0-0.2,43,1,11/24/23 19:44,50853196e778b5ff033c04a66adaecea,209.133.103.166,"Mozilla/5.0 (Macintosh; Intel Mac OS X 10_15_7) AppleWebKit/537.36 (KHTML, like Gecko) Chrome/119.0.0.0 Safari/537.36",Macintosh,Chrome,119.0.0.0,OS X,10_15_7,https://dgbhklbplk.cognition.run/?sona_id=13152,"en-US,en;q=0.9,fr;q=0.8",13152,219400229,,null,sentence,It's absolutely amazing to get to see a mipp in person.,null,null,It's absolutely amazing to get to see a mipp in person.,mipp,NOT_FOUND,NOT_FOUND,,,,,,,,,,,
,,,,,html-keyboard-response,5,25119,0.0-2.0-0.0-0.3,43,1,11/24/23 19:44,50853196e778b5ff033c04a66adaecea,209.133.103.166,"Mozilla/5.0 (Macintosh; Intel Mac OS X 10_15_7) AppleWebKit/537.36 (KHTML, like Gecko) Chrome/119.0.0.0 Safari/537.36",Macintosh,Chrome,119.0.0.0,OS X,10_15_7,https://dgbhklbplk.cognition.run/?sona_id=13152,"en-US,en;q=0.9,fr;q=0.8",13152,219400229,,null,sentence,I wished that they at least would have a geck.,null,null,I wished that they at least would have a geck.,dodish,geck,NOT_FOUND,,,,,,,,,,,
,,,,,html-keyboard-response,6,30128,0.0-2.0-0.0-0.4,43,1,11/24/23 19:44,50853196e778b5ff033c04a66adaecea,209.133.103.166,"Mozilla/5.0 (Macintosh; Intel Mac OS X 10_15_7) AppleWebKit/537.36 (KHTML, like Gecko) Chrome/119.0.0.0 Safari/537.36",Macintosh,Chrome,119.0.0.0,OS X,10_15_7,https://dgbhklbplk.cognition.run/?sona_id=13152,"en-US,en;q=0.9,fr;q=0.8",13152,219400229,,null,sentence,I thought maybe I'd see a mipp on the next day.,null,null,I thought maybe I'd see a mipp on the next day.,mipp,NOT_FOUND,NOT_FOUND,,,,,,,,,,,
,,,,,html-keyboard-response,7,35135,0.0-2.0-0.0-0.5,43,1,11/24/23 19:44,50853196e778b5ff033c04a66adaecea,209.133.103.166,"Mozilla/5.0 (Macintosh; Intel Mac OS X 10_15_7) AppleWebKit/537.36 (KHTML, like Gecko) Chrome/119.0.0.0 Safari/537.36",Macintosh,Chrome,119.0.0.0,OS X,10_15_7,https://dgbhklbplk.cognition.run/?sona_id=13152,"en-US,en;q=0.9,fr;q=0.8",13152,219400229,,null,sentence,Everybody I met in Zimziland would love to have a foobly apple.,null,null,Everybody I met in Zimziland would love to have a foobly apple.,foobly,Zimziland,NOT_FOUND,,,,,,,,,,,
,,,,,html-keyboard-response,8,40143,0.0-2.0-0.0-0.6,43,1,11/24/23 19:44,50853196e778b5ff033c04a66adaecea,209.133.103.166,"Mozilla/5.0 (Macintosh; Intel Mac OS X 10_15_7) AppleWebKit/537.36 (KHTML, like Gecko) Chrome/119.0.0.0 Safari/537.36",Macintosh,Chrome,119.0.0.0,OS X,10_15_7,https://dgbhklbplk.cognition.run/?sona_id=13152,"en-US,en;q=0.9,fr;q=0.8",13152,219400229,,null,sentence,I only found a dodish horse.,null,null,I only found a dodish horse.,dodish,NOT_FOUND,NOT_FOUND,,,,,,,,,,,
,,,,,html-keyboard-response,9,45151,0.0-2.0-0.0-0.7,43,1,11/24/23 19:44,50853196e778b5ff033c04a66adaecea,209.133.103.166,"Mozilla/5.0 (Macintosh; Intel Mac OS X 10_15_7) AppleWebKit/537.36 (KHTML, like Gecko) Chrome/119.0.0.0 Safari/537.36",Macintosh,Chrome,119.0.0.0,OS X,10_15_7,https://dgbhklbplk.cognition.run/?sona_id=13152,"en-US,en;q=0.9,fr;q=0.8",13152,219400229,,null,sentence,You never know with a dodish horse.,null,null,You never know with a dodish horse.,dodish,NOT_FOUND,NOT_FOUND,,,,,,,,,,,
,,,,,html-keyboard-response,10,50158,0.0-2.0-0.0-0.8,43,1,11/24/23 19:44,50853196e778b5ff033c04a66adaecea,209.133.103.166,"Mozilla/5.0 (Macintosh; Intel Mac OS X 10_15_7) AppleWebKit/537.36 (KHTML, like Gecko) Chrome/119.0.0.0 Safari/537.36",Macintosh,Chrome,119.0.0.0,OS X,10_15_7,https://dgbhklbplk.cognition.run/?sona_id=13152,"en-US,en;q=0.9,fr;q=0.8",13152,219400229,,null,sentence,"In the end, I brought a geck home.",null,null,"In the end, I brought a geck home.",dodish,geck,NOT_FOUND,,,,,,,,,,,
,,,,,survey-text,11,56530,0.0-2.0-0.0-1.8-0.8,43,1,11/24/23 19:44,50853196e778b5ff033c04a66adaecea,209.133.103.166,"Mozilla/5.0 (Macintosh; Intel Mac OS X 10_15_7) AppleWebKit/537.36 (KHTML, like Gecko) Chrome/119.0.0.0 Safari/537.36",Macintosh,Chrome,119.0.0.0,OS X,10_15_7,https://dgbhklbplk.cognition.run/?sona_id=13152,"en-US,en;q=0.9,fr;q=0.8",13152,219400229,,6364,attention,,mipp,mipp,,dodish,geck,NOT_FOUND,,,,,,,,,0,0,
,,,,,html-keyboard-response,12,61536,0.0-2.0-0.0-0.9,43,1,11/24/23 19:44,50853196e778b5ff033c04a66adaecea,209.133.103.166,"Mozilla/5.0 (Macintosh; Intel Mac OS X 10_15_7) AppleWebKit/537.36 (KHTML, like Gecko) Chrome/119.0.0.0 Safari/537.36",Macintosh,Chrome,119.0.0.0,OS X,10_15_7,https://dgbhklbplk.cognition.run/?sona_id=13152,"en-US,en;q=0.9,fr;q=0.8",13152,219400229,,null,sentence,One lady offered me a foobly apple.,null,null,One lady offered me a foobly apple.,foobly,NOT_FOUND,NOT_FOUND,,,,,,,,,,,
,,,,,html-keyboard-response,13,66539,0.0-2.0-0.0-0.10,43,1,11/24/23 19:44,50853196e778b5ff033c04a66adaecea,209.133.103.166,"Mozilla/5.0 (Macintosh; Intel Mac OS X 10_15_7) AppleWebKit/537.36 (KHTML, like Gecko) Chrome/119.0.0.0 Safari/537.36",Macintosh,Chrome,119.0.0.0,OS X,10_15_7,https://dgbhklbplk.cognition.run/?sona_id=13152,"en-US,en;q=0.9,fr;q=0.8",13152,219400229,,null,sentence,"There is no doubt, a dodish horse is the best!",null,null,"There is no doubt, a dodish horse is the best!",dodish,NOT_FOUND,NOT_FOUND,,,,,,,,,,,
,,,,,html-keyboard-response,14,71543,0.0-2.0-0.0-0.11,43,1,11/24/23 19:44,50853196e778b5ff033c04a66adaecea,209.133.103.166,"Mozilla/5.0 (Macintosh; Intel Mac OS X 10_15_7) AppleWebKit/537.36 (KHTML, like Gecko) Chrome/119.0.0.0 Safari/537.36",Macintosh,Chrome,119.0.0.0,OS X,10_15_7,https://dgbhklbplk.cognition.run/?sona_id=13152,"en-US,en;q=0.9,fr;q=0.8",13152,219400229,,null,sentence,I would like to have a geck.,null,null,I would like to have a geck.,dodish,geck,NOT_FOUND,,,,,,,,,,,
,,,,,html-keyboard-response,15,76547,0.0-2.0-0.0-0.12,43,1,11/24/23 19:44,50853196e778b5ff033c04a66adaecea,209.133.103.166,"Mozilla/5.0 (Macintosh; Intel Mac OS X 10_15_7) AppleWebKit/537.36 (KHTML, like Gecko) Chrome/119.0.0.0 Safari/537.36",Macintosh,Chrome,119.0.0.0,OS X,10_15_7,https://dgbhklbplk.cognition.run/?sona_id=13152,"en-US,en;q=0.9,fr;q=0.8",13152,219400229,,null,sentence,I took a lot of photos of a geck I saw.,null,null,I took a lot of photos of a geck I saw.,dodish,geck,NOT_FOUND,,,,,,,,,,,
,,,,,html-keyboard-response,16,81551,0.0-2.0-0.0-0.13,43,1,11/24/23 19:44,50853196e778b5ff033c04a66adaecea,209.133.103.166,"Mozilla/5.0 (Macintosh; Intel Mac OS X 10_15_7) AppleWebKit/537.36 (KHTML, like Gecko) Chrome/119.0.0.0 Safari/537.36",Macintosh,Chrome,119.0.0.0,OS X,10_15_7,https://dgbhklbplk.cognition.run/?sona_id=13152,"en-US,en;q=0.9,fr;q=0.8",13152,219400229,,null,sentence,I didn't find a mipp.,null,null,I didn't find a mipp.,mipp,NOT_FOUND,NOT_FOUND,,,,,,,,,,,
,,,,,html-keyboard-response,17,86556,0.0-2.0-0.0-0.14,43,1,11/24/23 19:44,50853196e778b5ff033c04a66adaecea,209.133.103.166,"Mozilla/5.0 (Macintosh; Intel Mac OS X 10_15_7) AppleWebKit/537.36 (KHTML, like Gecko) Chrome/119.0.0.0 Safari/537.36",Macintosh,Chrome,119.0.0.0,OS X,10_15_7,https://dgbhklbplk.cognition.run/?sona_id=13152,"en-US,en;q=0.9,fr;q=0.8",13152,219400229,,null,sentence,"At the end of day one, I was tired and just hoped to see a geck.",null,null,"At the end of day one, I was tired and just hoped to see a geck.",dodish,geck,NOT_FOUND,,,,,,,,,,,
,,,,,html-keyboard-response,18,91562,0.0-2.0-0.0-0.15,43,1,11/24/23 19:44,50853196e778b5ff033c04a66adaecea,209.133.103.166,"Mozilla/5.0 (Macintosh; Intel Mac OS X 10_15_7) AppleWebKit/537.36 (KHTML, like Gecko) Chrome/119.0.0.0 Safari/537.36",Macintosh,Chrome,119.0.0.0,OS X,10_15_7,https://dgbhklbplk.cognition.run/?sona_id=13152,"en-US,en;q=0.9,fr;q=0.8",13152,219400229,,null,sentence,I went out early to look for a geck.,null,null,I went out early to look for a geck.,dodish,geck,NOT_FOUND,,,,,,,,,,,
,,,,,html-keyboard-response,19,96565,0.0-2.0-0.0-0.16,43,1,11/24/23 19:44,50853196e778b5ff033c04a66adaecea,209.133.103.166,"Mozilla/5.0 (Macintosh; Intel Mac OS X 10_15_7) AppleWebKit/537.36 (KHTML, like Gecko) Chrome/119.0.0.0 Safari/537.36",Macintosh,Chrome,119.0.0.0,OS X,10_15_7,https://dgbhklbplk.cognition.run/?sona_id=13152,"en-US,en;q=0.9,fr;q=0.8",13152,219400229,,null,sentence,I'm a geck fan!,null,null,I'm a geck fan!,dodish,geck,NOT_FOUND,,,,,,,,,,,
,,,,,html-keyboard-response,20,101573,0.0-2.0-0.0-0.17,43,1,11/24/23 19:44,50853196e778b5ff033c04a66adaecea,209.133.103.166,"Mozilla/5.0 (Macintosh; Intel Mac OS X 10_15_7) AppleWebKit/537.36 (KHTML, like Gecko) Chrome/119.0.0.0 Safari/537.36",Macintosh,Chrome,119.0.0.0,OS X,10_15_7,https://dgbhklbplk.cognition.run/?sona_id=13152,"en-US,en;q=0.9,fr;q=0.8",13152,219400229,,null,sentence,I would really love to have a foobly apple.,null,null,I would really love to have a foobly apple.,foobly,NOT_FOUND,NOT_FOUND,,,,,,,,,,,
,,,,,html-keyboard-response,21,106581,0.0-2.0-0.0-0.18,43,1,11/24/23 19:44,50853196e778b5ff033c04a66adaecea,209.133.103.166,"Mozilla/5.0 (Macintosh; Intel Mac OS X 10_15_7) AppleWebKit/537.36 (KHTML, like Gecko) Chrome/119.0.0.0 Safari/537.36",Macintosh,Chrome,119.0.0.0,OS X,10_15_7,https://dgbhklbplk.cognition.run/?sona_id=13152,"en-US,en;q=0.9,fr;q=0.8",13152,219400229,,null,sentence,My sister doesn't like to have a foobly apple.,null,null,My sister doesn't like to have a foobly apple.,foobly,NOT_FOUND,NOT_FOUND,,,,,,,,,,,
,,,,,html-keyboard-response,22,111586,0.0-2.0-0.0-0.19,43,1,11/24/23 19:44,50853196e778b5ff033c04a66adaecea,209.133.103.166,"Mozilla/5.0 (Macintosh; Intel Mac OS X 10_15_7) AppleWebKit/537.36 (KHTML, like Gecko) Chrome/119.0.0.0 Safari/537.36",Macintosh,Chrome,119.0.0.0,OS X,10_15_7,https://dgbhklbplk.cognition.run/?sona_id=13152,"en-US,en;q=0.9,fr;q=0.8",13152,219400229,,null,sentence,The people I met there told me they saw a foobly apple that day.,null,null,The people I met there told me they saw a foobly apple that day.,foobly,NOT_FOUND,NOT_FOUND,,,,,,,,,,,
,,,,,html-keyboard-response,23,116595,0.0-2.0-0.0-0.20,43,1,11/24/23 19:44,50853196e778b5ff033c04a66adaecea,209.133.103.166,"Mozilla/5.0 (Macintosh; Intel Mac OS X 10_15_7) AppleWebKit/537.36 (KHTML, like Gecko) Chrome/119.0.0.0 Safari/537.36",Macintosh,Chrome,119.0.0.0,OS X,10_15_7,https://dgbhklbplk.cognition.run/?sona_id=13152,"en-US,en;q=0.9,fr;q=0.8",13152,219400229,,null,sentence,I went to a place where it's easy to find a foobly apple.,null,null,I went to a place where it's easy to find a foobly apple.,foobly,NOT_FOUND,NOT_FOUND,,,,,,,,,,,
,,,,,html-keyboard-response,24,121603,0.0-2.0-0.0-0.21,43,1,11/24/23 19:44,50853196e778b5ff033c04a66adaecea,209.133.103.166,"Mozilla/5.0 (Macintosh; Intel Mac OS X 10_15_7) AppleWebKit/537.36 (KHTML, like Gecko) Chrome/119.0.0.0 Safari/537.36",Macintosh,Chrome,119.0.0.0,OS X,10_15_7,https://dgbhklbplk.cognition.run/?sona_id=13152,"en-US,en;q=0.9,fr;q=0.8",13152,219400229,,null,sentence,I went to Zimziland because I heard you can get a foobly apple there.,null,null,I went to Zimziland because I heard you can get a foobly apple there.,foobly,Zimziland,NOT_FOUND,,,,,,,,,,,
,,,,,html-keyboard-response,25,126609,0.0-2.0-0.0-0.22,43,1,11/24/23 19:44,50853196e778b5ff033c04a66adaecea,209.133.103.166,"Mozilla/5.0 (Macintosh; Intel Mac OS X 10_15_7) AppleWebKit/537.36 (KHTML, like Gecko) Chrome/119.0.0.0 Safari/537.36",Macintosh,Chrome,119.0.0.0,OS X,10_15_7,https://dgbhklbplk.cognition.run/?sona_id=13152,"en-US,en;q=0.9,fr;q=0.8",13152,219400229,,null,sentence,They also said that they would really like to see a geck.,null,null,They also said that they would really like to see a geck.,dodish,geck,NOT_FOUND,,,,,,,,,,,
,,,,,survey-text,26,129590,0.0-2.0-0.0-1.22-0.22,43,1,11/24/23 19:44,50853196e778b5ff033c04a66adaecea,209.133.103.166,"Mozilla/5.0 (Macintosh; Intel Mac OS X 10_15_7) AppleWebKit/537.36 (KHTML, like Gecko) Chrome/119.0.0.0 Safari/537.36",Macintosh,Chrome,119.0.0.0,OS X,10_15_7,https://dgbhklbplk.cognition.run/?sona_id=13152,"en-US,en;q=0.9,fr;q=0.8",13152,219400229,,2974,attention,,geck,geck,,dodish,geck,NOT_FOUND,,,,,,,,,1,1,
,,,,,html-keyboard-response,27,134596,0.0-2.0-0.0-0.23,43,1,11/24/23 19:44,50853196e778b5ff033c04a66adaecea,209.133.103.166,"Mozilla/5.0 (Macintosh; Intel Mac OS X 10_15_7) AppleWebKit/537.36 (KHTML, like Gecko) Chrome/119.0.0.0 Safari/537.36",Macintosh,Chrome,119.0.0.0,OS X,10_15_7,https://dgbhklbplk.cognition.run/?sona_id=13152,"en-US,en;q=0.9,fr;q=0.8",13152,219400229,,null,sentence,I would love to see a dodish horse.,null,null,I would love to see a dodish horse.,dodish,NOT_FOUND,NOT_FOUND,,,,,,,,,,,
,,,,,html-keyboard-response,28,139599,0.0-2.0-0.0-0.24,43,1,11/24/23 19:44,50853196e778b5ff033c04a66adaecea,209.133.103.166,"Mozilla/5.0 (Macintosh; Intel Mac OS X 10_15_7) AppleWebKit/537.36 (KHTML, like Gecko) Chrome/119.0.0.0 Safari/537.36",Macintosh,Chrome,119.0.0.0,OS X,10_15_7,https://dgbhklbplk.cognition.run/?sona_id=13152,"en-US,en;q=0.9,fr;q=0.8",13152,219400229,,null,sentence,"As soon as I arrived, I noticed a foobly apple.",null,null,"As soon as I arrived, I noticed a foobly apple.",foobly,NOT_FOUND,NOT_FOUND,,,,,,,,,,,
,,,,,html-keyboard-response,29,144603,0.0-2.0-0.0-0.25,43,1,11/24/23 19:44,50853196e778b5ff033c04a66adaecea,209.133.103.166,"Mozilla/5.0 (Macintosh; Intel Mac OS X 10_15_7) AppleWebKit/537.36 (KHTML, like Gecko) Chrome/119.0.0.0 Safari/537.36",Macintosh,Chrome,119.0.0.0,OS X,10_15_7,https://dgbhklbplk.cognition.run/?sona_id=13152,"en-US,en;q=0.9,fr;q=0.8",13152,219400229,,null,sentence,I also love to have a mipp.,null,null,I also love to have a mipp.,mipp,NOT_FOUND,NOT_FOUND,,,,,,,,,,,
,,,,,html-keyboard-response,30,149608,0.0-2.0-0.0-0.26,43,1,11/24/23 19:44,50853196e778b5ff033c04a66adaecea,209.133.103.166,"Mozilla/5.0 (Macintosh; Intel Mac OS X 10_15_7) AppleWebKit/537.36 (KHTML, like Gecko) Chrome/119.0.0.0 Safari/537.36",Macintosh,Chrome,119.0.0.0,OS X,10_15_7,https://dgbhklbplk.cognition.run/?sona_id=13152,"en-US,en;q=0.9,fr;q=0.8",13152,219400229,,null,sentence,"On the second day, I saw a mipp.",null,null,"On the second day, I saw a mipp.",mipp,NOT_FOUND,NOT_FOUND,,,,,,,,,,,
,,,,,html-keyboard-response,31,154614,0.0-2.0-0.0-0.27,43,1,11/24/23 19:44,50853196e778b5ff033c04a66adaecea,209.133.103.166,"Mozilla/5.0 (Macintosh; Intel Mac OS X 10_15_7) AppleWebKit/537.36 (KHTML, like Gecko) Chrome/119.0.0.0 Safari/537.36",Macintosh,Chrome,119.0.0.0,OS X,10_15_7,https://dgbhklbplk.cognition.run/?sona_id=13152,"en-US,en;q=0.9,fr;q=0.8",13152,219400229,,null,sentence,There was a mipp just a few steps from here.,null,null,There was a mipp just a few steps from here.,mipp,NOT_FOUND,NOT_FOUND,,,,,,,,,,,
,,,,,html-keyboard-response,32,159621,0.0-2.0-0.0-0.28,43,1,11/24/23 19:44,50853196e778b5ff033c04a66adaecea,209.133.103.166,"Mozilla/5.0 (Macintosh; Intel Mac OS X 10_15_7) AppleWebKit/537.36 (KHTML, like Gecko) Chrome/119.0.0.0 Safari/537.36",Macintosh,Chrome,119.0.0.0,OS X,10_15_7,https://dgbhklbplk.cognition.run/?sona_id=13152,"en-US,en;q=0.9,fr;q=0.8",13152,219400229,,null,sentence,My friend Sally said she saw a mipp once.,null,null,My friend Sally said she saw a mipp once.,mipp,NOT_FOUND,NOT_FOUND,,,,,,,,,,,
,,,,,html-keyboard-response,33,164629,0.0-2.0-0.0-0.29,43,1,11/24/23 19:44,50853196e778b5ff033c04a66adaecea,209.133.103.166,"Mozilla/5.0 (Macintosh; Intel Mac OS X 10_15_7) AppleWebKit/537.36 (KHTML, like Gecko) Chrome/119.0.0.0 Safari/537.36",Macintosh,Chrome,119.0.0.0,OS X,10_15_7,https://dgbhklbplk.cognition.run/?sona_id=13152,"en-US,en;q=0.9,fr;q=0.8",13152,219400229,,null,sentence,Maybe I would prefer a foobly apple.,null,null,Maybe I would prefer a foobly apple.,foobly,NOT_FOUND,NOT_FOUND,,,,,,,,,,,
,,,,,html-keyboard-response,34,169638,0.0-2.0-0.0-0.30,43,1,11/24/23 19:44,50853196e778b5ff033c04a66adaecea,209.133.103.166,"Mozilla/5.0 (Macintosh; Intel Mac OS X 10_15_7) AppleWebKit/537.36 (KHTML, like Gecko) Chrome/119.0.0.0 Safari/537.36",Macintosh,Chrome,119.0.0.0,OS X,10_15_7,https://dgbhklbplk.cognition.run/?sona_id=13152,"en-US,en;q=0.9,fr;q=0.8",13152,219400229,,null,sentence,"I stayed there for a couple of days, hoping I would find a geck.",null,null,"I stayed there for a couple of days, hoping I would find a geck.",dodish,geck,NOT_FOUND,,,,,,,,,,,
,,,,,survey-text,35,176764,0.0-2.0-0.0-1.30-0.30,43,1,11/24/23 19:44,50853196e778b5ff033c04a66adaecea,209.133.103.166,"Mozilla/5.0 (Macintosh; Intel Mac OS X 10_15_7) AppleWebKit/537.36 (KHTML, like Gecko) Chrome/119.0.0.0 Safari/537.36",Macintosh,Chrome,119.0.0.0,OS X,10_15_7,https://dgbhklbplk.cognition.run/?sona_id=13152,"en-US,en;q=0.9,fr;q=0.8",13152,219400229,,7120,attention,,mipp,mipp,,dodish,geck,NOT_FOUND,,,,,,,,,0,0,
,,,,,html-keyboard-response,36,181771,0.0-2.0-0.0-0.31,43,1,11/24/23 19:44,50853196e778b5ff033c04a66adaecea,209.133.103.166,"Mozilla/5.0 (Macintosh; Intel Mac OS X 10_15_7) AppleWebKit/537.36 (KHTML, like Gecko) Chrome/119.0.0.0 Safari/537.36",Macintosh,Chrome,119.0.0.0,OS X,10_15_7,https://dgbhklbplk.cognition.run/?sona_id=13152,"en-US,en;q=0.9,fr;q=0.8",13152,219400229,,null,sentence,I have a picture of a dodish horse.,null,null,I have a picture of a dodish horse.,dodish,NOT_FOUND,NOT_FOUND,,,,,,,,,,,
,,,,,html-keyboard-response,37,186775,0.0-2.0-0.0-0.32,43,1,11/24/23 19:44,50853196e778b5ff033c04a66adaecea,209.133.103.166,"Mozilla/5.0 (Macintosh; Intel Mac OS X 10_15_7) AppleWebKit/537.36 (KHTML, like Gecko) Chrome/119.0.0.0 Safari/537.36",Macintosh,Chrome,119.0.0.0,OS X,10_15_7,https://dgbhklbplk.cognition.run/?sona_id=13152,"en-US,en;q=0.9,fr;q=0.8",13152,219400229,,null,sentence,Everybody would like to have a geck.,null,null,Everybody would like to have a geck.,dodish,geck,NOT_FOUND,,,,,,,,,,,
,,,,,html-keyboard-response,38,191780,0.0-2.0-0.0-0.33,43,1,11/24/23 19:44,50853196e778b5ff033c04a66adaecea,209.133.103.166,"Mozilla/5.0 (Macintosh; Intel Mac OS X 10_15_7) AppleWebKit/537.36 (KHTML, like Gecko) Chrome/119.0.0.0 Safari/537.36",Macintosh,Chrome,119.0.0.0,OS X,10_15_7,https://dgbhklbplk.cognition.run/?sona_id=13152,"en-US,en;q=0.9,fr;q=0.8",13152,219400229,,null,sentence,"She offered me a dodish horse, too.",null,null,"She offered me a dodish horse, too.",dodish,NOT_FOUND,NOT_FOUND,,,,,,,,,,,
,,,,,html-keyboard-response,39,196783,0.0-2.0-0.0-0.34,43,1,11/24/23 19:44,50853196e778b5ff033c04a66adaecea,209.133.103.166,"Mozilla/5.0 (Macintosh; Intel Mac OS X 10_15_7) AppleWebKit/537.36 (KHTML, like Gecko) Chrome/119.0.0.0 Safari/537.36",Macintosh,Chrome,119.0.0.0,OS X,10_15_7,https://dgbhklbplk.cognition.run/?sona_id=13152,"en-US,en;q=0.9,fr;q=0.8",13152,219400229,,null,sentence,My sister told me you can get a mipp there.,null,null,My sister told me you can get a mipp there.,mipp,NOT_FOUND,NOT_FOUND,,,,,,,,,,,
,,,,,html-keyboard-response,40,201790,0.0-2.0-0.0-0.35,43,1,11/24/23 19:44,50853196e778b5ff033c04a66adaecea,209.133.103.166,"Mozilla/5.0 (Macintosh; Intel Mac OS X 10_15_7) AppleWebKit/537.36 (KHTML, like Gecko) Chrome/119.0.0.0 Safari/537.36",Macintosh,Chrome,119.0.0.0,OS X,10_15_7,https://dgbhklbplk.cognition.run/?sona_id=13152,"en-US,en;q=0.9,fr;q=0.8",13152,219400229,,null,sentence,I hadn't seen a dodish horse for hours.,null,null,I hadn't seen a dodish horse for hours.,dodish,NOT_FOUND,NOT_FOUND,,,,,,,,,,,
,,,,,html-keyboard-response,41,206799,0.0-2.0-0.0-0.36,43,1,11/24/23 19:44,50853196e778b5ff033c04a66adaecea,209.133.103.166,"Mozilla/5.0 (Macintosh; Intel Mac OS X 10_15_7) AppleWebKit/537.36 (KHTML, like Gecko) Chrome/119.0.0.0 Safari/537.36",Macintosh,Chrome,119.0.0.0,OS X,10_15_7,https://dgbhklbplk.cognition.run/?sona_id=13152,"en-US,en;q=0.9,fr;q=0.8",13152,219400229,,null,sentence,There are people who prefer a dodish horse.,null,null,There are people who prefer a dodish horse.,dodish,NOT_FOUND,NOT_FOUND,,,,,,,,,,,
,,,,,html-keyboard-response,42,211806,0.0-2.0-0.0-0.37,43,1,11/24/23 19:44,50853196e778b5ff033c04a66adaecea,209.133.103.166,"Mozilla/5.0 (Macintosh; Intel Mac OS X 10_15_7) AppleWebKit/537.36 (KHTML, like Gecko) Chrome/119.0.0.0 Safari/537.36",Macintosh,Chrome,119.0.0.0,OS X,10_15_7,https://dgbhklbplk.cognition.run/?sona_id=13152,"en-US,en;q=0.9,fr;q=0.8",13152,219400229,,null,sentence,"On the eleventh day of my trip, I found a dodish horse.",null,null,"On the eleventh day of my trip, I found a dodish horse.",dodish,NOT_FOUND,NOT_FOUND,,,,,,,,,,,
,,,,,html-keyboard-response,43,216813,0.0-2.0-0.0-0.38,43,1,11/24/23 19:44,50853196e778b5ff033c04a66adaecea,209.133.103.166,"Mozilla/5.0 (Macintosh; Intel Mac OS X 10_15_7) AppleWebKit/537.36 (KHTML, like Gecko) Chrome/119.0.0.0 Safari/537.36",Macintosh,Chrome,119.0.0.0,OS X,10_15_7,https://dgbhklbplk.cognition.run/?sona_id=13152,"en-US,en;q=0.9,fr;q=0.8",13152,219400229,,null,sentence,I imagined that I would find a mipp in Zimziland.,null,null,I imagined that I would find a mipp in Zimziland.,mipp,Zimziland,NOT_FOUND,,,,,,,,,,,
,,,,,html-keyboard-response,44,221822,0.0-2.0-0.0-0.39,43,1,11/24/23 19:44,50853196e778b5ff033c04a66adaecea,209.133.103.166,"Mozilla/5.0 (Macintosh; Intel Mac OS X 10_15_7) AppleWebKit/537.36 (KHTML, like Gecko) Chrome/119.0.0.0 Safari/537.36",Macintosh,Chrome,119.0.0.0,OS X,10_15_7,https://dgbhklbplk.cognition.run/?sona_id=13152,"en-US,en;q=0.9,fr;q=0.8",13152,219400229,,null,sentence,"In the end, I decided I'd go looking for a foobly apple.",null,null,"In the end, I decided I'd go looking for a foobly apple.",foobly,NOT_FOUND,NOT_FOUND,,,,,,,,,,,
,,,,,instructions,45,226620,0.0-2.0-1.0,43,1,11/24/23 19:44,50853196e778b5ff033c04a66adaecea,209.133.103.166,"Mozilla/5.0 (Macintosh; Intel Mac OS X 10_15_7) AppleWebKit/537.36 (KHTML, like Gecko) Chrome/119.0.0.0 Safari/537.36",Macintosh,Chrome,119.0.0.0,OS X,10_15_7,https://dgbhklbplk.cognition.run/?sona_id=13152,"en-US,en;q=0.9,fr;q=0.8",13152,219400229,"[{""page_index"":0,""viewing_time"":4795}]",4795,instructions,,,,,,,,,,,,,,,,,,
,,,,,html-keyboard-response,46,231627,0.0-2.0-2.0-0.0,43,1,11/24/23 19:44,50853196e778b5ff033c04a66adaecea,209.133.103.166,"Mozilla/5.0 (Macintosh; Intel Mac OS X 10_15_7) AppleWebKit/537.36 (KHTML, like Gecko) Chrome/119.0.0.0 Safari/537.36",Macintosh,Chrome,119.0.0.0,OS X,10_15_7,https://dgbhklbplk.cognition.run/?sona_id=13152,"en-US,en;q=0.9,fr;q=0.8",13152,219400229,,null,sentence,I would like to have a geck.,null,null,I would like to have a geck.,dodish,geck,NOT_FOUND,,,,,,,,,,,
,,,,,html-keyboard-response,47,236636,0.0-2.0-2.0-0.1,43,1,11/24/23 19:44,50853196e778b5ff033c04a66adaecea,209.133.103.166,"Mozilla/5.0 (Macintosh; Intel Mac OS X 10_15_7) AppleWebKit/537.36 (KHTML, like Gecko) Chrome/119.0.0.0 Safari/537.36",Macintosh,Chrome,119.0.0.0,OS X,10_15_7,https://dgbhklbplk.cognition.run/?sona_id=13152,"en-US,en;q=0.9,fr;q=0.8",13152,219400229,,null,sentence,I went to a place where it's easy to find a foobly apple.,null,null,I went to a place where it's easy to find a foobly apple.,foobly,NOT_FOUND,NOT_FOUND,,,,,,,,,,,
,,,,,html-keyboard-response,48,241645,0.0-2.0-2.0-0.2,43,1,11/24/23 19:44,50853196e778b5ff033c04a66adaecea,209.133.103.166,"Mozilla/5.0 (Macintosh; Intel Mac OS X 10_15_7) AppleWebKit/537.36 (KHTML, like Gecko) Chrome/119.0.0.0 Safari/537.36",Macintosh,Chrome,119.0.0.0,OS X,10_15_7,https://dgbhklbplk.cognition.run/?sona_id=13152,"en-US,en;q=0.9,fr;q=0.8",13152,219400229,,null,sentence,"On the eleventh day of my trip, I found a dodish horse.",null,null,"On the eleventh day of my trip, I found a dodish horse.",dodish,NOT_FOUND,NOT_FOUND,,,,,,,,,,,
,,,,,html-keyboard-response,49,246652,0.0-2.0-2.0-0.3,43,1,11/24/23 19:44,50853196e778b5ff033c04a66adaecea,209.133.103.166,"Mozilla/5.0 (Macintosh; Intel Mac OS X 10_15_7) AppleWebKit/537.36 (KHTML, like Gecko) Chrome/119.0.0.0 Safari/537.36",Macintosh,Chrome,119.0.0.0,OS X,10_15_7,https://dgbhklbplk.cognition.run/?sona_id=13152,"en-US,en;q=0.9,fr;q=0.8",13152,219400229,,null,sentence,I am not sure if I would like a dodish horse better.,null,null,I am not sure if I would like a dodish horse better.,dodish,NOT_FOUND,NOT_FOUND,,,,,,,,,,,
,,,,,html-keyboard-response,50,251661,0.0-2.0-2.0-0.4,43,1,11/24/23 19:44,50853196e778b5ff033c04a66adaecea,209.133.103.166,"Mozilla/5.0 (Macintosh; Intel Mac OS X 10_15_7) AppleWebKit/537.36 (KHTML, like Gecko) Chrome/119.0.0.0 Safari/537.36",Macintosh,Chrome,119.0.0.0,OS X,10_15_7,https://dgbhklbplk.cognition.run/?sona_id=13152,"en-US,en;q=0.9,fr;q=0.8",13152,219400229,,null,sentence,I went to Zimziland because I heard you can get a foobly apple there.,null,null,I went to Zimziland because I heard you can get a foobly apple there.,foobly,Zimziland,NOT_FOUND,,,,,,,,,,,
,,,,,html-keyboard-response,51,256668,0.0-2.0-2.0-0.5,43,1,11/24/23 19:44,50853196e778b5ff033c04a66adaecea,209.133.103.166,"Mozilla/5.0 (Macintosh; Intel Mac OS X 10_15_7) AppleWebKit/537.36 (KHTML, like Gecko) Chrome/119.0.0.0 Safari/537.36",Macintosh,Chrome,119.0.0.0,OS X,10_15_7,https://dgbhklbplk.cognition.run/?sona_id=13152,"en-US,en;q=0.9,fr;q=0.8",13152,219400229,,null,sentence,"At the end of day one, I was tired and just hoped to see a geck.",null,null,"At the end of day one, I was tired and just hoped to see a geck.",dodish,geck,NOT_FOUND,,,,,,,,,,,
,,,,,html-keyboard-response,52,261678,0.0-2.0-2.0-0.6,43,1,11/24/23 19:44,50853196e778b5ff033c04a66adaecea,209.133.103.166,"Mozilla/5.0 (Macintosh; Intel Mac OS X 10_15_7) AppleWebKit/537.36 (KHTML, like Gecko) Chrome/119.0.0.0 Safari/537.36",Macintosh,Chrome,119.0.0.0,OS X,10_15_7,https://dgbhklbplk.cognition.run/?sona_id=13152,"en-US,en;q=0.9,fr;q=0.8",13152,219400229,,null,sentence,You never know with a dodish horse.,null,null,You never know with a dodish horse.,dodish,NOT_FOUND,NOT_FOUND,,,,,,,,,,,
,,,,,html-keyboard-response,53,266687,0.0-2.0-2.0-0.7,43,1,11/24/23 19:44,50853196e778b5ff033c04a66adaecea,209.133.103.166,"Mozilla/5.0 (Macintosh; Intel Mac OS X 10_15_7) AppleWebKit/537.36 (KHTML, like Gecko) Chrome/119.0.0.0 Safari/537.36",Macintosh,Chrome,119.0.0.0,OS X,10_15_7,https://dgbhklbplk.cognition.run/?sona_id=13152,"en-US,en;q=0.9,fr;q=0.8",13152,219400229,,null,sentence,I didn't find a mipp.,null,null,I didn't find a mipp.,mipp,NOT_FOUND,NOT_FOUND,,,,,,,,,,,
,,,,,html-keyboard-response,54,271695,0.0-2.0-2.0-0.8,43,1,11/24/23 19:44,50853196e778b5ff033c04a66adaecea,209.133.103.166,"Mozilla/5.0 (Macintosh; Intel Mac OS X 10_15_7) AppleWebKit/537.36 (KHTML, like Gecko) Chrome/119.0.0.0 Safari/537.36",Macintosh,Chrome,119.0.0.0,OS X,10_15_7,https://dgbhklbplk.cognition.run/?sona_id=13152,"en-US,en;q=0.9,fr;q=0.8",13152,219400229,,null,sentence,I only found a dodish horse.,null,null,I only found a dodish horse.,dodish,NOT_FOUND,NOT_FOUND,,,,,,,,,,,
,,,,,survey-text,55,274663,0.0-2.0-2.0-1.8-0.8,43,1,11/24/23 19:44,50853196e778b5ff033c04a66adaecea,209.133.103.166,"Mozilla/5.0 (Macintosh; Intel Mac OS X 10_15_7) AppleWebKit/537.36 (KHTML, like Gecko) Chrome/119.0.0.0 Safari/537.36",Macintosh,Chrome,119.0.0.0,OS X,10_15_7,https://dgbhklbplk.cognition.run/?sona_id=13152,"en-US,en;q=0.9,fr;q=0.8",13152,219400229,,2960,attention,,horse,horse,,dodish,NOT_FOUND,NOT_FOUND,,,,,,,,,0,0,
,,,,,html-keyboard-response,56,279671,0.0-2.0-2.0-0.9,43,1,11/24/23 19:44,50853196e778b5ff033c04a66adaecea,209.133.103.166,"Mozilla/5.0 (Macintosh; Intel Mac OS X 10_15_7) AppleWebKit/537.36 (KHTML, like Gecko) Chrome/119.0.0.0 Safari/537.36",Macintosh,Chrome,119.0.0.0,OS X,10_15_7,https://dgbhklbplk.cognition.run/?sona_id=13152,"en-US,en;q=0.9,fr;q=0.8",13152,219400229,,null,sentence,Everybody would like to have a geck.,null,null,Everybody would like to have a geck.,dodish,geck,NOT_FOUND,,,,,,,,,,,
,,,,,html-keyboard-response,57,284677,0.0-2.0-2.0-0.10,43,1,11/24/23 19:44,50853196e778b5ff033c04a66adaecea,209.133.103.166,"Mozilla/5.0 (Macintosh; Intel Mac OS X 10_15_7) AppleWebKit/537.36 (KHTML, like Gecko) Chrome/119.0.0.0 Safari/537.36",Macintosh,Chrome,119.0.0.0,OS X,10_15_7,https://dgbhklbplk.cognition.run/?sona_id=13152,"en-US,en;q=0.9,fr;q=0.8",13152,219400229,,null,sentence,There was a mipp just a few steps from here.,null,null,There was a mipp just a few steps from here.,mipp,NOT_FOUND,NOT_FOUND,,,,,,,,,,,
,,,,,html-keyboard-response,58,289684,0.0-2.0-2.0-0.11,43,1,11/24/23 19:44,50853196e778b5ff033c04a66adaecea,209.133.103.166,"Mozilla/5.0 (Macintosh; Intel Mac OS X 10_15_7) AppleWebKit/537.36 (KHTML, like Gecko) Chrome/119.0.0.0 Safari/537.36",Macintosh,Chrome,119.0.0.0,OS X,10_15_7,https://dgbhklbplk.cognition.run/?sona_id=13152,"en-US,en;q=0.9,fr;q=0.8",13152,219400229,,null,sentence,I imagined that I would find a mipp in Zimziland.,null,null,I imagined that I would find a mipp in Zimziland.,mipp,Zimziland,NOT_FOUND,,,,,,,,,,,
,,,,,html-keyboard-response,59,294692,0.0-2.0-2.0-0.12,43,1,11/24/23 19:44,50853196e778b5ff033c04a66adaecea,209.133.103.166,"Mozilla/5.0 (Macintosh; Intel Mac OS X 10_15_7) AppleWebKit/537.36 (KHTML, like Gecko) Chrome/119.0.0.0 Safari/537.36",Macintosh,Chrome,119.0.0.0,OS X,10_15_7,https://dgbhklbplk.cognition.run/?sona_id=13152,"en-US,en;q=0.9,fr;q=0.8",13152,219400229,,null,sentence,Everybody I met in Zimziland would love to have a foobly apple.,null,null,Everybody I met in Zimziland would love to have a foobly apple.,foobly,Zimziland,NOT_FOUND,,,,,,,,,,,
,,,,,html-keyboard-response,60,299701,0.0-2.0-2.0-0.13,43,1,11/24/23 19:44,50853196e778b5ff033c04a66adaecea,209.133.103.166,"Mozilla/5.0 (Macintosh; Intel Mac OS X 10_15_7) AppleWebKit/537.36 (KHTML, like Gecko) Chrome/119.0.0.0 Safari/537.36",Macintosh,Chrome,119.0.0.0,OS X,10_15_7,https://dgbhklbplk.cognition.run/?sona_id=13152,"en-US,en;q=0.9,fr;q=0.8",13152,219400229,,null,sentence,I hadn't seen a dodish horse for hours.,null,null,I hadn't seen a dodish horse for hours.,dodish,NOT_FOUND,NOT_FOUND,,,,,,,,,,,
,,,,,html-keyboard-response,61,304709,0.0-2.0-2.0-0.14,43,1,11/24/23 19:44,50853196e778b5ff033c04a66adaecea,209.133.103.166,"Mozilla/5.0 (Macintosh; Intel Mac OS X 10_15_7) AppleWebKit/537.36 (KHTML, like Gecko) Chrome/119.0.0.0 Safari/537.36",Macintosh,Chrome,119.0.0.0,OS X,10_15_7,https://dgbhklbplk.cognition.run/?sona_id=13152,"en-US,en;q=0.9,fr;q=0.8",13152,219400229,,null,sentence,My friend Sally said she saw a mipp once.,null,null,My friend Sally said she saw a mipp once.,mipp,NOT_FOUND,NOT_FOUND,,,,,,,,,,,
,,,,,html-keyboard-response,62,309719,0.0-2.0-2.0-0.15,43,1,11/24/23 19:44,50853196e778b5ff033c04a66adaecea,209.133.103.166,"Mozilla/5.0 (Macintosh; Intel Mac OS X 10_15_7) AppleWebKit/537.36 (KHTML, like Gecko) Chrome/119.0.0.0 Safari/537.36",Macintosh,Chrome,119.0.0.0,OS X,10_15_7,https://dgbhklbplk.cognition.run/?sona_id=13152,"en-US,en;q=0.9,fr;q=0.8",13152,219400229,,null,sentence,One lady offered me a foobly apple.,null,null,One lady offered me a foobly apple.,foobly,NOT_FOUND,NOT_FOUND,,,,,,,,,,,
,,,,,html-keyboard-response,63,314729,0.0-2.0-2.0-0.16,43,1,11/24/23 19:44,50853196e778b5ff033c04a66adaecea,209.133.103.166,"Mozilla/5.0 (Macintosh; Intel Mac OS X 10_15_7) AppleWebKit/537.36 (KHTML, like Gecko) Chrome/119.0.0.0 Safari/537.36",Macintosh,Chrome,119.0.0.0,OS X,10_15_7,https://dgbhklbplk.cognition.run/?sona_id=13152,"en-US,en;q=0.9,fr;q=0.8",13152,219400229,,null,sentence,"In the end, I decided I'd go looking for a foobly apple.",null,null,"In the end, I decided I'd go looking for a foobly apple.",foobly,NOT_FOUND,NOT_FOUND,,,,,,,,,,,
,,,,,html-keyboard-response,64,319736,0.0-2.0-2.0-0.17,43,1,11/24/23 19:44,50853196e778b5ff033c04a66adaecea,209.133.103.166,"Mozilla/5.0 (Macintosh; Intel Mac OS X 10_15_7) AppleWebKit/537.36 (KHTML, like Gecko) Chrome/119.0.0.0 Safari/537.36",Macintosh,Chrome,119.0.0.0,OS X,10_15_7,https://dgbhklbplk.cognition.run/?sona_id=13152,"en-US,en;q=0.9,fr;q=0.8",13152,219400229,,null,sentence,"I stayed there for a couple of days, hoping I would find a geck.",null,null,"I stayed there for a couple of days, hoping I would find a geck.",dodish,geck,NOT_FOUND,,,,,,,,,,,
,,,,,html-keyboard-response,65,324744,0.0-2.0-2.0-0.18,43,1,11/24/23 19:44,50853196e778b5ff033c04a66adaecea,209.133.103.166,"Mozilla/5.0 (Macintosh; Intel Mac OS X 10_15_7) AppleWebKit/537.36 (KHTML, like Gecko) Chrome/119.0.0.0 Safari/537.36",Macintosh,Chrome,119.0.0.0,OS X,10_15_7,https://dgbhklbplk.cognition.run/?sona_id=13152,"en-US,en;q=0.9,fr;q=0.8",13152,219400229,,null,sentence,"She offered me a dodish horse, too.",null,null,"She offered me a dodish horse, too.",dodish,NOT_FOUND,NOT_FOUND,,,,,,,,,,,
,,,,,html-keyboard-response,66,329754,0.0-2.0-2.0-0.19,43,1,11/24/23 19:44,50853196e778b5ff033c04a66adaecea,209.133.103.166,"Mozilla/5.0 (Macintosh; Intel Mac OS X 10_15_7) AppleWebKit/537.36 (KHTML, like Gecko) Chrome/119.0.0.0 Safari/537.36",Macintosh,Chrome,119.0.0.0,OS X,10_15_7,https://dgbhklbplk.cognition.run/?sona_id=13152,"en-US,en;q=0.9,fr;q=0.8",13152,219400229,,null,sentence,I went out early to look for a geck.,null,null,I went out early to look for a geck.,dodish,geck,NOT_FOUND,,,,,,,,,,,
,,,,,html-keyboard-response,67,334760,0.0-2.0-2.0-0.20,43,1,11/24/23 19:44,50853196e778b5ff033c04a66adaecea,209.133.103.166,"Mozilla/5.0 (Macintosh; Intel Mac OS X 10_15_7) AppleWebKit/537.36 (KHTML, like Gecko) Chrome/119.0.0.0 Safari/537.36",Macintosh,Chrome,119.0.0.0,OS X,10_15_7,https://dgbhklbplk.cognition.run/?sona_id=13152,"en-US,en;q=0.9,fr;q=0.8",13152,219400229,,null,sentence,It's absolutely amazing to get to see a mipp in person.,null,null,It's absolutely amazing to get to see a mipp in person.,mipp,NOT_FOUND,NOT_FOUND,,,,,,,,,,,
,,,,,html-keyboard-response,68,339770,0.0-2.0-2.0-0.21,43,1,11/24/23 19:44,50853196e778b5ff033c04a66adaecea,209.133.103.166,"Mozilla/5.0 (Macintosh; Intel Mac OS X 10_15_7) AppleWebKit/537.36 (KHTML, like Gecko) Chrome/119.0.0.0 Safari/537.36",Macintosh,Chrome,119.0.0.0,OS X,10_15_7,https://dgbhklbplk.cognition.run/?sona_id=13152,"en-US,en;q=0.9,fr;q=0.8",13152,219400229,,null,sentence,Maybe I would prefer a foobly apple.,null,null,Maybe I would prefer a foobly apple.,foobly,NOT_FOUND,NOT_FOUND,,,,,,,,,,,
,,,,,html-keyboard-response,69,344779,0.0-2.0-2.0-0.22,43,1,11/24/23 19:44,50853196e778b5ff033c04a66adaecea,209.133.103.166,"Mozilla/5.0 (Macintosh; Intel Mac OS X 10_15_7) AppleWebKit/537.36 (KHTML, like Gecko) Chrome/119.0.0.0 Safari/537.36",Macintosh,Chrome,119.0.0.0,OS X,10_15_7,https://dgbhklbplk.cognition.run/?sona_id=13152,"en-US,en;q=0.9,fr;q=0.8",13152,219400229,,null,sentence,They also said that they would really like to see a geck.,null,null,They also said that they would really like to see a geck.,dodish,geck,NOT_FOUND,,,,,,,,,,,
,,,,,survey-text,70,349399,0.0-2.0-2.0-1.22-0.22,43,1,11/24/23 19:44,50853196e778b5ff033c04a66adaecea,209.133.103.166,"Mozilla/5.0 (Macintosh; Intel Mac OS X 10_15_7) AppleWebKit/537.36 (KHTML, like Gecko) Chrome/119.0.0.0 Safari/537.36",Macintosh,Chrome,119.0.0.0,OS X,10_15_7,https://dgbhklbplk.cognition.run/?sona_id=13152,"en-US,en;q=0.9,fr;q=0.8",13152,219400229,,4613,attention,,apple,apple,,dodish,geck,NOT_FOUND,,,,,,,,,0,0,
,,,,,html-keyboard-response,71,354408,0.0-2.0-2.0-0.23,43,1,11/24/23 19:44,50853196e778b5ff033c04a66adaecea,209.133.103.166,"Mozilla/5.0 (Macintosh; Intel Mac OS X 10_15_7) AppleWebKit/537.36 (KHTML, like Gecko) Chrome/119.0.0.0 Safari/537.36",Macintosh,Chrome,119.0.0.0,OS X,10_15_7,https://dgbhklbplk.cognition.run/?sona_id=13152,"en-US,en;q=0.9,fr;q=0.8",13152,219400229,,null,sentence,I thought maybe I'd see a mipp on the next day.,null,null,I thought maybe I'd see a mipp on the next day.,mipp,NOT_FOUND,NOT_FOUND,,,,,,,,,,,
,,,,,html-keyboard-response,72,359413,0.0-2.0-2.0-0.24,43,1,11/24/23 19:44,50853196e778b5ff033c04a66adaecea,209.133.103.166,"Mozilla/5.0 (Macintosh; Intel Mac OS X 10_15_7) AppleWebKit/537.36 (KHTML, like Gecko) Chrome/119.0.0.0 Safari/537.36",Macintosh,Chrome,119.0.0.0,OS X,10_15_7,https://dgbhklbplk.cognition.run/?sona_id=13152,"en-US,en;q=0.9,fr;q=0.8",13152,219400229,,null,sentence,"There is no doubt, a dodish horse is the best!",null,null,"There is no doubt, a dodish horse is the best!",dodish,NOT_FOUND,NOT_FOUND,,,,,,,,,,,
,,,,,html-keyboard-response,73,364420,0.0-2.0-2.0-0.25,43,1,11/24/23 19:44,50853196e778b5ff033c04a66adaecea,209.133.103.166,"Mozilla/5.0 (Macintosh; Intel Mac OS X 10_15_7) AppleWebKit/537.36 (KHTML, like Gecko) Chrome/119.0.0.0 Safari/537.36",Macintosh,Chrome,119.0.0.0,OS X,10_15_7,https://dgbhklbplk.cognition.run/?sona_id=13152,"en-US,en;q=0.9,fr;q=0.8",13152,219400229,,null,sentence,"On the second day, I saw a mipp.",null,null,"On the second day, I saw a mipp.",mipp,NOT_FOUND,NOT_FOUND,,,,,,,,,,,
,,,,,html-keyboard-response,74,369427,0.0-2.0-2.0-0.26,43,1,11/24/23 19:44,50853196e778b5ff033c04a66adaecea,209.133.103.166,"Mozilla/5.0 (Macintosh; Intel Mac OS X 10_15_7) AppleWebKit/537.36 (KHTML, like Gecko) Chrome/119.0.0.0 Safari/537.36",Macintosh,Chrome,119.0.0.0,OS X,10_15_7,https://dgbhklbplk.cognition.run/?sona_id=13152,"en-US,en;q=0.9,fr;q=0.8",13152,219400229,,null,sentence,"In the end, I brought a geck home.",null,null,"In the end, I brought a geck home.",dodish,geck,NOT_FOUND,,,,,,,,,,,
,,,,,html-keyboard-response,75,374436,0.0-2.0-2.0-0.27,43,1,11/24/23 19:44,50853196e778b5ff033c04a66adaecea,209.133.103.166,"Mozilla/5.0 (Macintosh; Intel Mac OS X 10_15_7) AppleWebKit/537.36 (KHTML, like Gecko) Chrome/119.0.0.0 Safari/537.36",Macintosh,Chrome,119.0.0.0,OS X,10_15_7,https://dgbhklbplk.cognition.run/?sona_id=13152,"en-US,en;q=0.9,fr;q=0.8",13152,219400229,,null,sentence,I would really love to have a foobly apple.,null,null,I would really love to have a foobly apple.,foobly,NOT_FOUND,NOT_FOUND,,,,,,,,,,,
,,,,,html-keyboard-response,76,379445,0.0-2.0-2.0-0.28,43,1,11/24/23 19:44,50853196e778b5ff033c04a66adaecea,209.133.103.166,"Mozilla/5.0 (Macintosh; Intel Mac OS X 10_15_7) AppleWebKit/537.36 (KHTML, like Gecko) Chrome/119.0.0.0 Safari/537.36",Macintosh,Chrome,119.0.0.0,OS X,10_15_7,https://dgbhklbplk.cognition.run/?sona_id=13152,"en-US,en;q=0.9,fr;q=0.8",13152,219400229,,null,sentence,Sometimes I wish it were easier to get a mipp.,null,null,Sometimes I wish it were easier to get a mipp.,mipp,NOT_FOUND,NOT_FOUND,,,,,,,,,,,
,,,,,html-keyboard-response,77,384452,0.0-2.0-2.0-0.29,43,1,11/24/23 19:44,50853196e778b5ff033c04a66adaecea,209.133.103.166,"Mozilla/5.0 (Macintosh; Intel Mac OS X 10_15_7) AppleWebKit/537.36 (KHTML, like Gecko) Chrome/119.0.0.0 Safari/537.36",Macintosh,Chrome,119.0.0.0,OS X,10_15_7,https://dgbhklbplk.cognition.run/?sona_id=13152,"en-US,en;q=0.9,fr;q=0.8",13152,219400229,,null,sentence,I also love to have a mipp.,null,null,I also love to have a mipp.,mipp,NOT_FOUND,NOT_FOUND,,,,,,,,,,,
,,,,,html-keyboard-response,78,389461,0.0-2.0-2.0-0.30,43,1,11/24/23 19:44,50853196e778b5ff033c04a66adaecea,209.133.103.166,"Mozilla/5.0 (Macintosh; Intel Mac OS X 10_15_7) AppleWebKit/537.36 (KHTML, like Gecko) Chrome/119.0.0.0 Safari/537.36",Macintosh,Chrome,119.0.0.0,OS X,10_15_7,https://dgbhklbplk.cognition.run/?sona_id=13152,"en-US,en;q=0.9,fr;q=0.8",13152,219400229,,null,sentence,I'm a geck fan!,null,null,I'm a geck fan!,dodish,geck,NOT_FOUND,,,,,,,,,,,
,,,,,survey-text,79,391437,0.0-2.0-2.0-1.30-0.30,43,1,11/24/23 19:44,50853196e778b5ff033c04a66adaecea,209.133.103.166,"Mozilla/5.0 (Macintosh; Intel Mac OS X 10_15_7) AppleWebKit/537.36 (KHTML, like Gecko) Chrome/119.0.0.0 Safari/537.36",Macintosh,Chrome,119.0.0.0,OS X,10_15_7,https://dgbhklbplk.cognition.run/?sona_id=13152,"en-US,en;q=0.9,fr;q=0.8",13152,219400229,,1969,attention,,gec,geck,,dodish,geck,NOT_FOUND,,,,,,,,,0,1,
,,,,,html-keyboard-response,80,396446,0.0-2.0-2.0-0.31,43,1,11/24/23 19:44,50853196e778b5ff033c04a66adaecea,209.133.103.166,"Mozilla/5.0 (Macintosh; Intel Mac OS X 10_15_7) AppleWebKit/537.36 (KHTML, like Gecko) Chrome/119.0.0.0 Safari/537.36",Macintosh,Chrome,119.0.0.0,OS X,10_15_7,https://dgbhklbplk.cognition.run/?sona_id=13152,"en-US,en;q=0.9,fr;q=0.8",13152,219400229,,null,sentence,My sister told me you can get a mipp there.,null,null,My sister told me you can get a mipp there.,mipp,NOT_FOUND,NOT_FOUND,,,,,,,,,,,
,,,,,html-keyboard-response,81,401452,0.0-2.0-2.0-0.32,43,1,11/24/23 19:44,50853196e778b5ff033c04a66adaecea,209.133.103.166,"Mozilla/5.0 (Macintosh; Intel Mac OS X 10_15_7) AppleWebKit/537.36 (KHTML, like Gecko) Chrome/119.0.0.0 Safari/537.36",Macintosh,Chrome,119.0.0.0,OS X,10_15_7,https://dgbhklbplk.cognition.run/?sona_id=13152,"en-US,en;q=0.9,fr;q=0.8",13152,219400229,,null,sentence,My sister doesn't like to have a foobly apple.,null,null,My sister doesn't like to have a foobly apple.,foobly,NOT_FOUND,NOT_FOUND,,,,,,,,,,,
,,,,,html-keyboard-response,82,406456,0.0-2.0-2.0-0.33,43,1,11/24/23 19:44,50853196e778b5ff033c04a66adaecea,209.133.103.166,"Mozilla/5.0 (Macintosh; Intel Mac OS X 10_15_7) AppleWebKit/537.36 (KHTML, like Gecko) Chrome/119.0.0.0 Safari/537.36",Macintosh,Chrome,119.0.0.0,OS X,10_15_7,https://dgbhklbplk.cognition.run/?sona_id=13152,"en-US,en;q=0.9,fr;q=0.8",13152,219400229,,null,sentence,There are people who prefer a dodish horse.,null,null,There are people who prefer a dodish horse.,dodish,NOT_FOUND,NOT_FOUND,,,,,,,,,,,
,,,,,html-keyboard-response,83,411463,0.0-2.0-2.0-0.34,43,1,11/24/23 19:44,50853196e778b5ff033c04a66adaecea,209.133.103.166,"Mozilla/5.0 (Macintosh; Intel Mac OS X 10_15_7) AppleWebKit/537.36 (KHTML, like Gecko) Chrome/119.0.0.0 Safari/537.36",Macintosh,Chrome,119.0.0.0,OS X,10_15_7,https://dgbhklbplk.cognition.run/?sona_id=13152,"en-US,en;q=0.9,fr;q=0.8",13152,219400229,,null,sentence,I have a picture of a dodish horse.,null,null,I have a picture of a dodish horse.,dodish,NOT_FOUND,NOT_FOUND,,,,,,,,,,,
,,,,,html-keyboard-response,84,416471,0.0-2.0-2.0-0.35,43,1,11/24/23 19:44,50853196e778b5ff033c04a66adaecea,209.133.103.166,"Mozilla/5.0 (Macintosh; Intel Mac OS X 10_15_7) AppleWebKit/537.36 (KHTML, like Gecko) Chrome/119.0.0.0 Safari/537.36",Macintosh,Chrome,119.0.0.0,OS X,10_15_7,https://dgbhklbplk.cognition.run/?sona_id=13152,"en-US,en;q=0.9,fr;q=0.8",13152,219400229,,null,sentence,I would love to see a dodish horse.,null,null,I would love to see a dodish horse.,dodish,NOT_FOUND,NOT_FOUND,,,,,,,,,,,
,,,,,html-keyboard-response,85,421481,0.0-2.0-2.0-0.36,43,1,11/24/23 19:44,50853196e778b5ff033c04a66adaecea,209.133.103.166,"Mozilla/5.0 (Macintosh; Intel Mac OS X 10_15_7) AppleWebKit/537.36 (KHTML, like Gecko) Chrome/119.0.0.0 Safari/537.36",Macintosh,Chrome,119.0.0.0,OS X,10_15_7,https://dgbhklbplk.cognition.run/?sona_id=13152,"en-US,en;q=0.9,fr;q=0.8",13152,219400229,,null,sentence,I wished that they at least would have a geck.,null,null,I wished that they at least would have a geck.,dodish,geck,NOT_FOUND,,,,,,,,,,,
,,,,,html-keyboard-response,86,426491,0.0-2.0-2.0-0.37,43,1,11/24/23 19:44,50853196e778b5ff033c04a66adaecea,209.133.103.166,"Mozilla/5.0 (Macintosh; Intel Mac OS X 10_15_7) AppleWebKit/537.36 (KHTML, like Gecko) Chrome/119.0.0.0 Safari/537.36",Macintosh,Chrome,119.0.0.0,OS X,10_15_7,https://dgbhklbplk.cognition.run/?sona_id=13152,"en-US,en;q=0.9,fr;q=0.8",13152,219400229,,null,sentence,The people I met there told me they saw a foobly apple that day.,null,null,The people I met there told me they saw a foobly apple that day.,foobly,NOT_FOUND,NOT_FOUND,,,,,,,,,,,
,,,,,html-keyboard-response,87,431500,0.0-2.0-2.0-0.38,43,1,11/24/23 19:44,50853196e778b5ff033c04a66adaecea,209.133.103.166,"Mozilla/5.0 (Macintosh; Intel Mac OS X 10_15_7) AppleWebKit/537.36 (KHTML, like Gecko) Chrome/119.0.0.0 Safari/537.36",Macintosh,Chrome,119.0.0.0,OS X,10_15_7,https://dgbhklbplk.cognition.run/?sona_id=13152,"en-US,en;q=0.9,fr;q=0.8",13152,219400229,,null,sentence,"As soon as I arrived, I noticed a foobly apple.",null,null,"As soon as I arrived, I noticed a foobly apple.",foobly,NOT_FOUND,NOT_FOUND,,,,,,,,,,,
,,,,,html-keyboard-response,88,436510,0.0-2.0-2.0-0.39,43,1,11/24/23 19:44,50853196e778b5ff033c04a66adaecea,209.133.103.166,"Mozilla/5.0 (Macintosh; Intel Mac OS X 10_15_7) AppleWebKit/537.36 (KHTML, like Gecko) Chrome/119.0.0.0 Safari/537.36",Macintosh,Chrome,119.0.0.0,OS X,10_15_7,https://dgbhklbplk.cognition.run/?sona_id=13152,"en-US,en;q=0.9,fr;q=0.8",13152,219400229,,null,sentence,I took a lot of photos of a geck I saw.,null,null,I took a lot of photos of a geck I saw.,dodish,geck,NOT_FOUND,,,,,,,,,,,
,,,,,instructions,89,439202,0.0-2.0-3.0,43,1,11/24/23 19:44,50853196e778b5ff033c04a66adaecea,209.133.103.166,"Mozilla/5.0 (Macintosh; Intel Mac OS X 10_15_7) AppleWebKit/537.36 (KHTML, like Gecko) Chrome/119.0.0.0 Safari/537.36",Macintosh,Chrome,119.0.0.0,OS X,10_15_7,https://dgbhklbplk.cognition.run/?sona_id=13152,"en-US,en;q=0.9,fr;q=0.8",13152,219400229,"[{""page_index"":0,""viewing_time"":2687}]",2688,instructions,,,,,,,,,,,,,,,,,,
,,,,,html-keyboard-response,90,444211,0.0-2.0-4.0-0.0,43,1,11/24/23 19:44,50853196e778b5ff033c04a66adaecea,209.133.103.166,"Mozilla/5.0 (Macintosh; Intel Mac OS X 10_15_7) AppleWebKit/537.36 (KHTML, like Gecko) Chrome/119.0.0.0 Safari/537.36",Macintosh,Chrome,119.0.0.0,OS X,10_15_7,https://dgbhklbplk.cognition.run/?sona_id=13152,"en-US,en;q=0.9,fr;q=0.8",13152,219400229,,null,sentence,Everybody I met in Zimziland would love to have a foobly apple.,null,null,Everybody I met in Zimziland would love to have a foobly apple.,foobly,Zimziland,NOT_FOUND,,,,,,,,,,,
,,,,,html-keyboard-response,91,449222,0.0-2.0-4.0-0.1,43,1,11/24/23 19:44,50853196e778b5ff033c04a66adaecea,209.133.103.166,"Mozilla/5.0 (Macintosh; Intel Mac OS X 10_15_7) AppleWebKit/537.36 (KHTML, like Gecko) Chrome/119.0.0.0 Safari/537.36",Macintosh,Chrome,119.0.0.0,OS X,10_15_7,https://dgbhklbplk.cognition.run/?sona_id=13152,"en-US,en;q=0.9,fr;q=0.8",13152,219400229,,null,sentence,I would like to have a geck.,null,null,I would like to have a geck.,dodish,geck,NOT_FOUND,,,,,,,,,,,
,,,,,html-keyboard-response,92,454231,0.0-2.0-4.0-0.2,43,1,11/24/23 19:44,50853196e778b5ff033c04a66adaecea,209.133.103.166,"Mozilla/5.0 (Macintosh; Intel Mac OS X 10_15_7) AppleWebKit/537.36 (KHTML, like Gecko) Chrome/119.0.0.0 Safari/537.36",Macintosh,Chrome,119.0.0.0,OS X,10_15_7,https://dgbhklbplk.cognition.run/?sona_id=13152,"en-US,en;q=0.9,fr;q=0.8",13152,219400229,,null,sentence,I only found a dodish horse.,null,null,I only found a dodish horse.,dodish,NOT_FOUND,NOT_FOUND,,,,,,,,,,,
,,,,,html-keyboard-response,93,459238,0.0-2.0-4.0-0.3,43,1,11/24/23 19:44,50853196e778b5ff033c04a66adaecea,209.133.103.166,"Mozilla/5.0 (Macintosh; Intel Mac OS X 10_15_7) AppleWebKit/537.36 (KHTML, like Gecko) Chrome/119.0.0.0 Safari/537.36",Macintosh,Chrome,119.0.0.0,OS X,10_15_7,https://dgbhklbplk.cognition.run/?sona_id=13152,"en-US,en;q=0.9,fr;q=0.8",13152,219400229,,null,sentence,"In the end, I decided I'd go looking for a foobly apple.",null,null,"In the end, I decided I'd go looking for a foobly apple.",foobly,NOT_FOUND,NOT_FOUND,,,,,,,,,,,
,,,,,html-keyboard-response,94,464248,0.0-2.0-4.0-0.4,43,1,11/24/23 19:44,50853196e778b5ff033c04a66adaecea,209.133.103.166,"Mozilla/5.0 (Macintosh; Intel Mac OS X 10_15_7) AppleWebKit/537.36 (KHTML, like Gecko) Chrome/119.0.0.0 Safari/537.36",Macintosh,Chrome,119.0.0.0,OS X,10_15_7,https://dgbhklbplk.cognition.run/?sona_id=13152,"en-US,en;q=0.9,fr;q=0.8",13152,219400229,,null,sentence,I have a picture of a dodish horse.,null,null,I have a picture of a dodish horse.,dodish,NOT_FOUND,NOT_FOUND,,,,,,,,,,,
,,,,,html-keyboard-response,95,469259,0.0-2.0-4.0-0.5,43,1,11/24/23 19:44,50853196e778b5ff033c04a66adaecea,209.133.103.166,"Mozilla/5.0 (Macintosh; Intel Mac OS X 10_15_7) AppleWebKit/537.36 (KHTML, like Gecko) Chrome/119.0.0.0 Safari/537.36",Macintosh,Chrome,119.0.0.0,OS X,10_15_7,https://dgbhklbplk.cognition.run/?sona_id=13152,"en-US,en;q=0.9,fr;q=0.8",13152,219400229,,null,sentence,"She offered me a dodish horse, too.",null,null,"She offered me a dodish horse, too.",dodish,NOT_FOUND,NOT_FOUND,,,,,,,,,,,
,,,,,html-keyboard-response,96,474270,0.0-2.0-4.0-0.6,43,1,11/24/23 19:44,50853196e778b5ff033c04a66adaecea,209.133.103.166,"Mozilla/5.0 (Macintosh; Intel Mac OS X 10_15_7) AppleWebKit/537.36 (KHTML, like Gecko) Chrome/119.0.0.0 Safari/537.36",Macintosh,Chrome,119.0.0.0,OS X,10_15_7,https://dgbhklbplk.cognition.run/?sona_id=13152,"en-US,en;q=0.9,fr;q=0.8",13152,219400229,,null,sentence,I went to Zimziland because I heard you can get a foobly apple there.,null,null,I went to Zimziland because I heard you can get a foobly apple there.,foobly,Zimziland,NOT_FOUND,,,,,,,,,,,
,,,,,html-keyboard-response,97,479281,0.0-2.0-4.0-0.7,43,1,11/24/23 19:44,50853196e778b5ff033c04a66adaecea,209.133.103.166,"Mozilla/5.0 (Macintosh; Intel Mac OS X 10_15_7) AppleWebKit/537.36 (KHTML, like Gecko) Chrome/119.0.0.0 Safari/537.36",Macintosh,Chrome,119.0.0.0,OS X,10_15_7,https://dgbhklbplk.cognition.run/?sona_id=13152,"en-US,en;q=0.9,fr;q=0.8",13152,219400229,,null,sentence,"I stayed there for a couple of days, hoping I would find a geck.",null,null,"I stayed there for a couple of days, hoping I would find a geck.",dodish,geck,NOT_FOUND,,,,,,,,,,,
,,,,,html-keyboard-response,98,484290,0.0-2.0-4.0-0.8,43,1,11/24/23 19:44,50853196e778b5ff033c04a66adaecea,209.133.103.166,"Mozilla/5.0 (Macintosh; Intel Mac OS X 10_15_7) AppleWebKit/537.36 (KHTML, like Gecko) Chrome/119.0.0.0 Safari/537.36",Macintosh,Chrome,119.0.0.0,OS X,10_15_7,https://dgbhklbplk.cognition.run/?sona_id=13152,"en-US,en;q=0.9,fr;q=0.8",13152,219400229,,null,sentence,"On the eleventh day of my trip, I found a dodish horse.",null,null,"On the eleventh day of my trip, I found a dodish horse.",dodish,NOT_FOUND,NOT_FOUND,,,,,,,,,,,
,,,,,survey-text,99,486507,0.0-2.0-4.0-1.8-0.8,43,1,11/24/23 19:44,50853196e778b5ff033c04a66adaecea,209.133.103.166,"Mozilla/5.0 (Macintosh; Intel Mac OS X 10_15_7) AppleWebKit/537.36 (KHTML, like Gecko) Chrome/119.0.0.0 Safari/537.36",Macintosh,Chrome,119.0.0.0,OS X,10_15_7,https://dgbhklbplk.cognition.run/?sona_id=13152,"en-US,en;q=0.9,fr;q=0.8",13152,219400229,,2208,attention,,horse,horse,,dodish,NOT_FOUND,NOT_FOUND,,,,,,,,,0,0,
,,,,,html-keyboard-response,100,491515,0.0-2.0-4.0-0.9,43,1,11/24/23 19:44,50853196e778b5ff033c04a66adaecea,209.133.103.166,"Mozilla/5.0 (Macintosh; Intel Mac OS X 10_15_7) AppleWebKit/537.36 (KHTML, like Gecko) Chrome/119.0.0.0 Safari/537.36",Macintosh,Chrome,119.0.0.0,OS X,10_15_7,https://dgbhklbplk.cognition.run/?sona_id=13152,"en-US,en;q=0.9,fr;q=0.8",13152,219400229,,null,sentence,"There is no doubt, a dodish horse is the best!",null,null,"There is no doubt, a dodish horse is the best!",dodish,NOT_FOUND,NOT_FOUND,,,,,,,,,,,
,,,,,html-keyboard-response,101,496521,0.0-2.0-4.0-0.10,43,1,11/24/23 19:44,50853196e778b5ff033c04a66adaecea,209.133.103.166,"Mozilla/5.0 (Macintosh; Intel Mac OS X 10_15_7) AppleWebKit/537.36 (KHTML, like Gecko) Chrome/119.0.0.0 Safari/537.36",Macintosh,Chrome,119.0.0.0,OS X,10_15_7,https://dgbhklbplk.cognition.run/?sona_id=13152,"en-US,en;q=0.9,fr;q=0.8",13152,219400229,,null,sentence,Maybe I would prefer a foobly apple.,null,null,Maybe I would prefer a foobly apple.,foobly,NOT_FOUND,NOT_FOUND,,,,,,,,,,,
,,,,,html-keyboard-response,102,501529,0.0-2.0-4.0-0.11,43,1,11/24/23 19:44,50853196e778b5ff033c04a66adaecea,209.133.103.166,"Mozilla/5.0 (Macintosh; Intel Mac OS X 10_15_7) AppleWebKit/537.36 (KHTML, like Gecko) Chrome/119.0.0.0 Safari/537.36",Macintosh,Chrome,119.0.0.0,OS X,10_15_7,https://dgbhklbplk.cognition.run/?sona_id=13152,"en-US,en;q=0.9,fr;q=0.8",13152,219400229,,null,sentence,I wished that they at least would have a geck.,null,null,I wished that they at least would have a geck.,dodish,geck,NOT_FOUND,,,,,,,,,,,
,,,,,html-keyboard-response,103,506538,0.0-2.0-4.0-0.12,43,1,11/24/23 19:44,50853196e778b5ff033c04a66adaecea,209.133.103.166,"Mozilla/5.0 (Macintosh; Intel Mac OS X 10_15_7) AppleWebKit/537.36 (KHTML, like Gecko) Chrome/119.0.0.0 Safari/537.36",Macintosh,Chrome,119.0.0.0,OS X,10_15_7,https://dgbhklbplk.cognition.run/?sona_id=13152,"en-US,en;q=0.9,fr;q=0.8",13152,219400229,,null,sentence,My sister doesn't like to have a foobly apple.,null,null,My sister doesn't like to have a foobly apple.,foobly,NOT_FOUND,NOT_FOUND,,,,,,,,,,,
,,,,,html-keyboard-response,104,511550,0.0-2.0-4.0-0.13,43,1,11/24/23 19:44,50853196e778b5ff033c04a66adaecea,209.133.103.166,"Mozilla/5.0 (Macintosh; Intel Mac OS X 10_15_7) AppleWebKit/537.36 (KHTML, like Gecko) Chrome/119.0.0.0 Safari/537.36",Macintosh,Chrome,119.0.0.0,OS X,10_15_7,https://dgbhklbplk.cognition.run/?sona_id=13152,"en-US,en;q=0.9,fr;q=0.8",13152,219400229,,null,sentence,"As soon as I arrived, I noticed a foobly apple.",null,null,"As soon as I arrived, I noticed a foobly apple.",foobly,NOT_FOUND,NOT_FOUND,,,,,,,,,,,
,,,,,html-keyboard-response,105,516560,0.0-2.0-4.0-0.14,43,1,11/24/23 19:44,50853196e778b5ff033c04a66adaecea,209.133.103.166,"Mozilla/5.0 (Macintosh; Intel Mac OS X 10_15_7) AppleWebKit/537.36 (KHTML, like Gecko) Chrome/119.0.0.0 Safari/537.36",Macintosh,Chrome,119.0.0.0,OS X,10_15_7,https://dgbhklbplk.cognition.run/?sona_id=13152,"en-US,en;q=0.9,fr;q=0.8",13152,219400229,,null,sentence,One lady offered me a foobly apple.,null,null,One lady offered me a foobly apple.,foobly,NOT_FOUND,NOT_FOUND,,,,,,,,,,,
,,,,,html-keyboard-response,106,521569,0.0-2.0-4.0-0.15,43,1,11/24/23 19:44,50853196e778b5ff033c04a66adaecea,209.133.103.166,"Mozilla/5.0 (Macintosh; Intel Mac OS X 10_15_7) AppleWebKit/537.36 (KHTML, like Gecko) Chrome/119.0.0.0 Safari/537.36",Macintosh,Chrome,119.0.0.0,OS X,10_15_7,https://dgbhklbplk.cognition.run/?sona_id=13152,"en-US,en;q=0.9,fr;q=0.8",13152,219400229,,null,sentence,I hadn't seen a dodish horse for hours.,null,null,I hadn't seen a dodish horse for hours.,dodish,NOT_FOUND,NOT_FOUND,,,,,,,,,,,
,,,,,html-keyboard-response,107,526579,0.0-2.0-4.0-0.16,43,1,11/24/23 19:44,50853196e778b5ff033c04a66adaecea,209.133.103.166,"Mozilla/5.0 (Macintosh; Intel Mac OS X 10_15_7) AppleWebKit/537.36 (KHTML, like Gecko) Chrome/119.0.0.0 Safari/537.36",Macintosh,Chrome,119.0.0.0,OS X,10_15_7,https://dgbhklbplk.cognition.run/?sona_id=13152,"en-US,en;q=0.9,fr;q=0.8",13152,219400229,,null,sentence,I went to a place where it's easy to find a foobly apple.,null,null,I went to a place where it's easy to find a foobly apple.,foobly,NOT_FOUND,NOT_FOUND,,,,,,,,,,,
,,,,,html-keyboard-response,108,531589,0.0-2.0-4.0-0.17,43,1,11/24/23 19:44,50853196e778b5ff033c04a66adaecea,209.133.103.166,"Mozilla/5.0 (Macintosh; Intel Mac OS X 10_15_7) AppleWebKit/537.36 (KHTML, like Gecko) Chrome/119.0.0.0 Safari/537.36",Macintosh,Chrome,119.0.0.0,OS X,10_15_7,https://dgbhklbplk.cognition.run/?sona_id=13152,"en-US,en;q=0.9,fr;q=0.8",13152,219400229,,null,sentence,I also love to have a mipp.,null,null,I also love to have a mipp.,mipp,NOT_FOUND,NOT_FOUND,,,,,,,,,,,
,,,,,html-keyboard-response,109,536600,0.0-2.0-4.0-0.18,43,1,11/24/23 19:44,50853196e778b5ff033c04a66adaecea,209.133.103.166,"Mozilla/5.0 (Macintosh; Intel Mac OS X 10_15_7) AppleWebKit/537.36 (KHTML, like Gecko) Chrome/119.0.0.0 Safari/537.36",Macintosh,Chrome,119.0.0.0,OS X,10_15_7,https://dgbhklbplk.cognition.run/?sona_id=13152,"en-US,en;q=0.9,fr;q=0.8",13152,219400229,,null,sentence,I'm a geck fan!,null,null,I'm a geck fan!,dodish,geck,NOT_FOUND,,,,,,,,,,,
,,,,,html-keyboard-response,110,541610,0.0-2.0-4.0-0.19,43,1,11/24/23 19:44,50853196e778b5ff033c04a66adaecea,209.133.103.166,"Mozilla/5.0 (Macintosh; Intel Mac OS X 10_15_7) AppleWebKit/537.36 (KHTML, like Gecko) Chrome/119.0.0.0 Safari/537.36",Macintosh,Chrome,119.0.0.0,OS X,10_15_7,https://dgbhklbplk.cognition.run/?sona_id=13152,"en-US,en;q=0.9,fr;q=0.8",13152,219400229,,null,sentence,Sometimes I wish it were easier to get a mipp.,null,null,Sometimes I wish it were easier to get a mipp.,mipp,NOT_FOUND,NOT_FOUND,,,,,,,,,,,
,,,,,html-keyboard-response,111,546614,0.0-2.0-4.0-0.20,43,1,11/24/23 19:44,50853196e778b5ff033c04a66adaecea,209.133.103.166,"Mozilla/5.0 (Macintosh; Intel Mac OS X 10_15_7) AppleWebKit/537.36 (KHTML, like Gecko) Chrome/119.0.0.0 Safari/537.36",Macintosh,Chrome,119.0.0.0,OS X,10_15_7,https://dgbhklbplk.cognition.run/?sona_id=13152,"en-US,en;q=0.9,fr;q=0.8",13152,219400229,,null,sentence,There are people who prefer a dodish horse.,null,null,There are people who prefer a dodish horse.,dodish,NOT_FOUND,NOT_FOUND,,,,,,,,,,,
,,,,,html-keyboard-response,112,551626,0.0-2.0-4.0-0.21,43,1,11/24/23 19:44,50853196e778b5ff033c04a66adaecea,209.133.103.166,"Mozilla/5.0 (Macintosh; Intel Mac OS X 10_15_7) AppleWebKit/537.36 (KHTML, like Gecko) Chrome/119.0.0.0 Safari/537.36",Macintosh,Chrome,119.0.0.0,OS X,10_15_7,https://dgbhklbplk.cognition.run/?sona_id=13152,"en-US,en;q=0.9,fr;q=0.8",13152,219400229,,null,sentence,"On the second day, I saw a mipp.",null,null,"On the second day, I saw a mipp.",mipp,NOT_FOUND,NOT_FOUND,,,,,,,,,,,
,,,,,html-keyboard-response,113,556635,0.0-2.0-4.0-0.22,43,1,11/24/23 19:44,50853196e778b5ff033c04a66adaecea,209.133.103.166,"Mozilla/5.0 (Macintosh; Intel Mac OS X 10_15_7) AppleWebKit/537.36 (KHTML, like Gecko) Chrome/119.0.0.0 Safari/537.36",Macintosh,Chrome,119.0.0.0,OS X,10_15_7,https://dgbhklbplk.cognition.run/?sona_id=13152,"en-US,en;q=0.9,fr;q=0.8",13152,219400229,,null,sentence,"At the end of day one, I was tired and just hoped to see a geck.",null,null,"At the end of day one, I was tired and just hoped to see a geck.",dodish,geck,NOT_FOUND,,,,,,,,,,,
,,,,,survey-text,114,560691,0.0-2.0-4.0-1.22-0.22,43,1,11/24/23 19:44,50853196e778b5ff033c04a66adaecea,209.133.103.166,"Mozilla/5.0 (Macintosh; Intel Mac OS X 10_15_7) AppleWebKit/537.36 (KHTML, like Gecko) Chrome/119.0.0.0 Safari/537.36",Macintosh,Chrome,119.0.0.0,OS X,10_15_7,https://dgbhklbplk.cognition.run/?sona_id=13152,"en-US,en;q=0.9,fr;q=0.8",13152,219400229,,4047,attention,,hoped,hoped,,dodish,geck,NOT_FOUND,,,,,,,,,0,0,
,,,,,html-keyboard-response,115,565701,0.0-2.0-4.0-0.23,43,1,11/24/23 19:44,50853196e778b5ff033c04a66adaecea,209.133.103.166,"Mozilla/5.0 (Macintosh; Intel Mac OS X 10_15_7) AppleWebKit/537.36 (KHTML, like Gecko) Chrome/119.0.0.0 Safari/537.36",Macintosh,Chrome,119.0.0.0,OS X,10_15_7,https://dgbhklbplk.cognition.run/?sona_id=13152,"en-US,en;q=0.9,fr;q=0.8",13152,219400229,,null,sentence,I would really love to have a foobly apple.,null,null,I would really love to have a foobly apple.,foobly,NOT_FOUND,NOT_FOUND,,,,,,,,,,,
,,,,,html-keyboard-response,116,570707,0.0-2.0-4.0-0.24,43,1,11/24/23 19:44,50853196e778b5ff033c04a66adaecea,209.133.103.166,"Mozilla/5.0 (Macintosh; Intel Mac OS X 10_15_7) AppleWebKit/537.36 (KHTML, like Gecko) Chrome/119.0.0.0 Safari/537.36",Macintosh,Chrome,119.0.0.0,OS X,10_15_7,https://dgbhklbplk.cognition.run/?sona_id=13152,"en-US,en;q=0.9,fr;q=0.8",13152,219400229,,null,sentence,There was a mipp just a few steps from here.,null,null,There was a mipp just a few steps from here.,mipp,NOT_FOUND,NOT_FOUND,,,,,,,,,,,
,,,,,html-keyboard-response,117,575716,0.0-2.0-4.0-0.25,43,1,11/24/23 19:44,50853196e778b5ff033c04a66adaecea,209.133.103.166,"Mozilla/5.0 (Macintosh; Intel Mac OS X 10_15_7) AppleWebKit/537.36 (KHTML, like Gecko) Chrome/119.0.0.0 Safari/537.36",Macintosh,Chrome,119.0.0.0,OS X,10_15_7,https://dgbhklbplk.cognition.run/?sona_id=13152,"en-US,en;q=0.9,fr;q=0.8",13152,219400229,,null,sentence,I thought maybe I'd see a mipp on the next day.,null,null,I thought maybe I'd see a mipp on the next day.,mipp,NOT_FOUND,NOT_FOUND,,,,,,,,,,,
,,,,,html-keyboard-response,118,580727,0.0-2.0-4.0-0.26,43,1,11/24/23 19:44,50853196e778b5ff033c04a66adaecea,209.133.103.166,"Mozilla/5.0 (Macintosh; Intel Mac OS X 10_15_7) AppleWebKit/537.36 (KHTML, like Gecko) Chrome/119.0.0.0 Safari/537.36",Macintosh,Chrome,119.0.0.0,OS X,10_15_7,https://dgbhklbplk.cognition.run/?sona_id=13152,"en-US,en;q=0.9,fr;q=0.8",13152,219400229,,null,sentence,The people I met there told me they saw a foobly apple that day.,null,null,The people I met there told me they saw a foobly apple that day.,foobly,NOT_FOUND,NOT_FOUND,,,,,,,,,,,
,,,,,html-keyboard-response,119,585738,0.0-2.0-4.0-0.27,43,1,11/24/23 19:44,50853196e778b5ff033c04a66adaecea,209.133.103.166,"Mozilla/5.0 (Macintosh; Intel Mac OS X 10_15_7) AppleWebKit/537.36 (KHTML, like Gecko) Chrome/119.0.0.0 Safari/537.36",Macintosh,Chrome,119.0.0.0,OS X,10_15_7,https://dgbhklbplk.cognition.run/?sona_id=13152,"en-US,en;q=0.9,fr;q=0.8",13152,219400229,,null,sentence,It's absolutely amazing to get to see a mipp in person.,null,null,It's absolutely amazing to get to see a mipp in person.,mipp,NOT_FOUND,NOT_FOUND,,,,,,,,,,,
,,,,,html-keyboard-response,120,590750,0.0-2.0-4.0-0.28,43,1,11/24/23 19:44,50853196e778b5ff033c04a66adaecea,209.133.103.166,"Mozilla/5.0 (Macintosh; Intel Mac OS X 10_15_7) AppleWebKit/537.36 (KHTML, like Gecko) Chrome/119.0.0.0 Safari/537.36",Macintosh,Chrome,119.0.0.0,OS X,10_15_7,https://dgbhklbplk.cognition.run/?sona_id=13152,"en-US,en;q=0.9,fr;q=0.8",13152,219400229,,null,sentence,I am not sure if I would like a dodish horse better.,null,null,I am not sure if I would like a dodish horse better.,dodish,NOT_FOUND,NOT_FOUND,,,,,,,,,,,
,,,,,html-keyboard-response,121,595756,0.0-2.0-4.0-0.29,43,1,11/24/23 19:44,50853196e778b5ff033c04a66adaecea,209.133.103.166,"Mozilla/5.0 (Macintosh; Intel Mac OS X 10_15_7) AppleWebKit/537.36 (KHTML, like Gecko) Chrome/119.0.0.0 Safari/537.36",Macintosh,Chrome,119.0.0.0,OS X,10_15_7,https://dgbhklbplk.cognition.run/?sona_id=13152,"en-US,en;q=0.9,fr;q=0.8",13152,219400229,,null,sentence,I didn't find a mipp.,null,null,I didn't find a mipp.,mipp,NOT_FOUND,NOT_FOUND,,,,,,,,,,,
,,,,,html-keyboard-response,122,600767,0.0-2.0-4.0-0.30,43,1,11/24/23 19:44,50853196e778b5ff033c04a66adaecea,209.133.103.166,"Mozilla/5.0 (Macintosh; Intel Mac OS X 10_15_7) AppleWebKit/537.36 (KHTML, like Gecko) Chrome/119.0.0.0 Safari/537.36",Macintosh,Chrome,119.0.0.0,OS X,10_15_7,https://dgbhklbplk.cognition.run/?sona_id=13152,"en-US,en;q=0.9,fr;q=0.8",13152,219400229,,null,sentence,I imagined that I would find a mipp in Zimziland.,null,null,I imagined that I would find a mipp in Zimziland.,mipp,Zimziland,NOT_FOUND,,,,,,,,,,,
,,,,,survey-text,123,604281,0.0-2.0-4.0-1.30-0.30,43,1,11/24/23 19:44,50853196e778b5ff033c04a66adaecea,209.133.103.166,"Mozilla/5.0 (Macintosh; Intel Mac OS X 10_15_7) AppleWebKit/537.36 (KHTML, like Gecko) Chrome/119.0.0.0 Safari/537.36",Macintosh,Chrome,119.0.0.0,OS X,10_15_7,https://dgbhklbplk.cognition.run/?sona_id=13152,"en-US,en;q=0.9,fr;q=0.8",13152,219400229,,3505,attention,,find,find,,mipp,Zimziland,NOT_FOUND,,,,,,,,,0,0,
,,,,,html-keyboard-response,124,609288,0.0-2.0-4.0-0.31,43,1,11/24/23 19:44,50853196e778b5ff033c04a66adaecea,209.133.103.166,"Mozilla/5.0 (Macintosh; Intel Mac OS X 10_15_7) AppleWebKit/537.36 (KHTML, like Gecko) Chrome/119.0.0.0 Safari/537.36",Macintosh,Chrome,119.0.0.0,OS X,10_15_7,https://dgbhklbplk.cognition.run/?sona_id=13152,"en-US,en;q=0.9,fr;q=0.8",13152,219400229,,null,sentence,"In the end, I brought a geck home.",null,null,"In the end, I brought a geck home.",dodish,geck,NOT_FOUND,,,,,,,,,,,
,,,,,html-keyboard-response,125,614294,0.0-2.0-4.0-0.32,43,1,11/24/23 19:44,50853196e778b5ff033c04a66adaecea,209.133.103.166,"Mozilla/5.0 (Macintosh; Intel Mac OS X 10_15_7) AppleWebKit/537.36 (KHTML, like Gecko) Chrome/119.0.0.0 Safari/537.36",Macintosh,Chrome,119.0.0.0,OS X,10_15_7,https://dgbhklbplk.cognition.run/?sona_id=13152,"en-US,en;q=0.9,fr;q=0.8",13152,219400229,,null,sentence,I took a lot of photos of a geck I saw.,null,null,I took a lot of photos of a geck I saw.,dodish,geck,NOT_FOUND,,,,,,,,,,,
,,,,,html-keyboard-response,126,619301,0.0-2.0-4.0-0.33,43,1,11/24/23 19:44,50853196e778b5ff033c04a66adaecea,209.133.103.166,"Mozilla/5.0 (Macintosh; Intel Mac OS X 10_15_7) AppleWebKit/537.36 (KHTML, like Gecko) Chrome/119.0.0.0 Safari/537.36",Macintosh,Chrome,119.0.0.0,OS X,10_15_7,https://dgbhklbplk.cognition.run/?sona_id=13152,"en-US,en;q=0.9,fr;q=0.8",13152,219400229,,null,sentence,Everybody would like to have a geck.,null,null,Everybody would like to have a geck.,dodish,geck,NOT_FOUND,,,,,,,,,,,
,,,,,html-keyboard-response,127,624314,0.0-2.0-4.0-0.34,43,1,11/24/23 19:44,50853196e778b5ff033c04a66adaecea,209.133.103.166,"Mozilla/5.0 (Macintosh; Intel Mac OS X 10_15_7) AppleWebKit/537.36 (KHTML, like Gecko) Chrome/119.0.0.0 Safari/537.36",Macintosh,Chrome,119.0.0.0,OS X,10_15_7,https://dgbhklbplk.cognition.run/?sona_id=13152,"en-US,en;q=0.9,fr;q=0.8",13152,219400229,,null,sentence,I would love to see a dodish horse.,null,null,I would love to see a dodish horse.,dodish,NOT_FOUND,NOT_FOUND,,,,,,,,,,,
,,,,,html-keyboard-response,128,629324,0.0-2.0-4.0-0.35,43,1,11/24/23 19:44,50853196e778b5ff033c04a66adaecea,209.133.103.166,"Mozilla/5.0 (Macintosh; Intel Mac OS X 10_15_7) AppleWebKit/537.36 (KHTML, like Gecko) Chrome/119.0.0.0 Safari/537.36",Macintosh,Chrome,119.0.0.0,OS X,10_15_7,https://dgbhklbplk.cognition.run/?sona_id=13152,"en-US,en;q=0.9,fr;q=0.8",13152,219400229,,null,sentence,My friend Sally said she saw a mipp once.,null,null,My friend Sally said she saw a mipp once.,mipp,NOT_FOUND,NOT_FOUND,,,,,,,,,,,
,,,,,html-keyboard-response,129,634335,0.0-2.0-4.0-0.36,43,1,11/24/23 19:44,50853196e778b5ff033c04a66adaecea,209.133.103.166,"Mozilla/5.0 (Macintosh; Intel Mac OS X 10_15_7) AppleWebKit/537.36 (KHTML, like Gecko) Chrome/119.0.0.0 Safari/537.36",Macintosh,Chrome,119.0.0.0,OS X,10_15_7,https://dgbhklbplk.cognition.run/?sona_id=13152,"en-US,en;q=0.9,fr;q=0.8",13152,219400229,,null,sentence,My sister told me you can get a mipp there.,null,null,My sister told me you can get a mipp there.,mipp,NOT_FOUND,NOT_FOUND,,,,,,,,,,,
,,,,,html-keyboard-response,130,639348,0.0-2.0-4.0-0.37,43,1,11/24/23 19:44,50853196e778b5ff033c04a66adaecea,209.133.103.166,"Mozilla/5.0 (Macintosh; Intel Mac OS X 10_15_7) AppleWebKit/537.36 (KHTML, like Gecko) Chrome/119.0.0.0 Safari/537.36",Macintosh,Chrome,119.0.0.0,OS X,10_15_7,https://dgbhklbplk.cognition.run/?sona_id=13152,"en-US,en;q=0.9,fr;q=0.8",13152,219400229,,null,sentence,They also said that they would really like to see a geck.,null,null,They also said that they would really like to see a geck.,dodish,geck,NOT_FOUND,,,,,,,,,,,
,,,,,html-keyboard-response,131,644359,0.0-2.0-4.0-0.38,43,1,11/24/23 19:44,50853196e778b5ff033c04a66adaecea,209.133.103.166,"Mozilla/5.0 (Macintosh; Intel Mac OS X 10_15_7) AppleWebKit/537.36 (KHTML, like Gecko) Chrome/119.0.0.0 Safari/537.36",Macintosh,Chrome,119.0.0.0,OS X,10_15_7,https://dgbhklbplk.cognition.run/?sona_id=13152,"en-US,en;q=0.9,fr;q=0.8",13152,219400229,,null,sentence,I went out early to look for a geck.,null,null,I went out early to look for a geck.,dodish,geck,NOT_FOUND,,,,,,,,,,,
,,,,,html-keyboard-response,132,649370,0.0-2.0-4.0-0.39,43,1,11/24/23 19:44,50853196e778b5ff033c04a66adaecea,209.133.103.166,"Mozilla/5.0 (Macintosh; Intel Mac OS X 10_15_7) AppleWebKit/537.36 (KHTML, like Gecko) Chrome/119.0.0.0 Safari/537.36",Macintosh,Chrome,119.0.0.0,OS X,10_15_7,https://dgbhklbplk.cognition.run/?sona_id=13152,"en-US,en;q=0.9,fr;q=0.8",13152,219400229,,null,sentence,You never know with a dodish horse.,null,null,You never know with a dodish horse.,dodish,NOT_FOUND,NOT_FOUND,,,,,,,,,,,
,,,,,instructions,133,653456,0.0-2.0-5.0,43,1,11/24/23 19:44,50853196e778b5ff033c04a66adaecea,209.133.103.166,"Mozilla/5.0 (Macintosh; Intel Mac OS X 10_15_7) AppleWebKit/537.36 (KHTML, like Gecko) Chrome/119.0.0.0 Safari/537.36",Macintosh,Chrome,119.0.0.0,OS X,10_15_7,https://dgbhklbplk.cognition.run/?sona_id=13152,"en-US,en;q=0.9,fr;q=0.8",13152,219400229,"[{""page_index"":0,""viewing_time"":4080}]",4080,instructions,,,,,,,,,,,,,,,,,,
,,,,,survey-text,134,657808,0.0-2.0-6.0-0.0,43,1,11/24/23 19:44,50853196e778b5ff033c04a66adaecea,209.133.103.166,"Mozilla/5.0 (Macintosh; Intel Mac OS X 10_15_7) AppleWebKit/537.36 (KHTML, like Gecko) Chrome/119.0.0.0 Safari/537.36",Macintosh,Chrome,119.0.0.0,OS X,10_15_7,https://dgbhklbplk.cognition.run/?sona_id=13152,"en-US,en;q=0.9,fr;q=0.8",13152,219400229,,4344,association,,saw,saw,,,,,geck,,,,,,,,,,
,,,,,survey-text,135,659818,0.0-2.0-6.0-0.1,43,1,11/24/23 19:44,50853196e778b5ff033c04a66adaecea,209.133.103.166,"Mozilla/5.0 (Macintosh; Intel Mac OS X 10_15_7) AppleWebKit/537.36 (KHTML, like Gecko) Chrome/119.0.0.0 Safari/537.36",Macintosh,Chrome,119.0.0.0,OS X,10_15_7,https://dgbhklbplk.cognition.run/?sona_id=13152,"en-US,en;q=0.9,fr;q=0.8",13152,219400229,,2001,association,,apple,apple,,,,,foobly,,,,,,,,,,
,,,,,survey-text,136,663116,0.0-2.0-6.0-0.2,43,1,11/24/23 19:44,50853196e778b5ff033c04a66adaecea,209.133.103.166,"Mozilla/5.0 (Macintosh; Intel Mac OS X 10_15_7) AppleWebKit/537.36 (KHTML, like Gecko) Chrome/119.0.0.0 Safari/537.36",Macintosh,Chrome,119.0.0.0,OS X,10_15_7,https://dgbhklbplk.cognition.run/?sona_id=13152,"en-US,en;q=0.9,fr;q=0.8",13152,219400229,,3290,association,,horse,horse,,,,,dodish,,,,,,,,,,
,,,,,survey-text,137,665127,0.0-2.0-6.0-0.3,43,1,11/24/23 19:44,50853196e778b5ff033c04a66adaecea,209.133.103.166,"Mozilla/5.0 (Macintosh; Intel Mac OS X 10_15_7) AppleWebKit/537.36 (KHTML, like Gecko) Chrome/119.0.0.0 Safari/537.36",Macintosh,Chrome,119.0.0.0,OS X,10_15_7,https://dgbhklbplk.cognition.run/?sona_id=13152,"en-US,en;q=0.9,fr;q=0.8",13152,219400229,,2002,association,,saw,saw,,,,,mipp,,,,,,,,,,
,,,,,survey-text,138,666817,0.0-2.0-6.0-0.4,43,1,11/24/23 19:44,50853196e778b5ff033c04a66adaecea,209.133.103.166,"Mozilla/5.0 (Macintosh; Intel Mac OS X 10_15_7) AppleWebKit/537.36 (KHTML, like Gecko) Chrome/119.0.0.0 Safari/537.36",Macintosh,Chrome,119.0.0.0,OS X,10_15_7,https://dgbhklbplk.cognition.run/?sona_id=13152,"en-US,en;q=0.9,fr;q=0.8",13152,219400229,,1682,association,,horse,horse,,,,,dodish,,,,,,,,,,
,,,,,survey-text,139,668426,0.0-2.0-6.0-0.5,43,1,11/24/23 19:44,50853196e778b5ff033c04a66adaecea,209.133.103.166,"Mozilla/5.0 (Macintosh; Intel Mac OS X 10_15_7) AppleWebKit/537.36 (KHTML, like Gecko) Chrome/119.0.0.0 Safari/537.36",Macintosh,Chrome,119.0.0.0,OS X,10_15_7,https://dgbhklbplk.cognition.run/?sona_id=13152,"en-US,en;q=0.9,fr;q=0.8",13152,219400229,,1601,association,,saw,saw,,,,,geck,,,,,,,,,,
,,,,,survey-text,140,673512,0.0-2.0-6.0-0.6,43,1,11/24/23 19:44,50853196e778b5ff033c04a66adaecea,209.133.103.166,"Mozilla/5.0 (Macintosh; Intel Mac OS X 10_15_7) AppleWebKit/537.36 (KHTML, like Gecko) Chrome/119.0.0.0 Safari/537.36",Macintosh,Chrome,119.0.0.0,OS X,10_15_7,https://dgbhklbplk.cognition.run/?sona_id=13152,"en-US,en;q=0.9,fr;q=0.8",13152,219400229,,5078,association,,zimziland,zimziland,,,,,mipp,,,,,,,,,,
,,,,,survey-text,141,675123,0.0-2.0-6.0-0.7,43,1,11/24/23 19:44,50853196e778b5ff033c04a66adaecea,209.133.103.166,"Mozilla/5.0 (Macintosh; Intel Mac OS X 10_15_7) AppleWebKit/537.36 (KHTML, like Gecko) Chrome/119.0.0.0 Safari/537.36",Macintosh,Chrome,119.0.0.0,OS X,10_15_7,https://dgbhklbplk.cognition.run/?sona_id=13152,"en-US,en;q=0.9,fr;q=0.8",13152,219400229,,1605,association,,apple,apple,,,,,foobly,,,,,,,,,,
,,,,,survey-text,142,676929,0.0-2.0-6.0-0.8,43,1,11/24/23 19:44,50853196e778b5ff033c04a66adaecea,209.133.103.166,"Mozilla/5.0 (Macintosh; Intel Mac OS X 10_15_7) AppleWebKit/537.36 (KHTML, like Gecko) Chrome/119.0.0.0 Safari/537.36",Macintosh,Chrome,119.0.0.0,OS X,10_15_7,https://dgbhklbplk.cognition.run/?sona_id=13152,"en-US,en;q=0.9,fr;q=0.8",13152,219400229,,1796,association,,saw,saw,,,,,mipp,,,,,,,,,,
,,,,,survey-text,143,678650,0.0-2.0-6.0-0.9,43,1,11/24/23 19:44,50853196e778b5ff033c04a66adaecea,209.133.103.166,"Mozilla/5.0 (Macintosh; Intel Mac OS X 10_15_7) AppleWebKit/537.36 (KHTML, like Gecko) Chrome/119.0.0.0 Safari/537.36",Macintosh,Chrome,119.0.0.0,OS X,10_15_7,https://dgbhklbplk.cognition.run/?sona_id=13152,"en-US,en;q=0.9,fr;q=0.8",13152,219400229,,1715,association,,horse,horse,,,,,dodish,,,,,,,,,,
,,,,,survey-text,144,680494,0.0-2.0-6.0-0.10,43,1,11/24/23 19:44,50853196e778b5ff033c04a66adaecea,209.133.103.166,"Mozilla/5.0 (Macintosh; Intel Mac OS X 10_15_7) AppleWebKit/537.36 (KHTML, like Gecko) Chrome/119.0.0.0 Safari/537.36",Macintosh,Chrome,119.0.0.0,OS X,10_15_7,https://dgbhklbplk.cognition.run/?sona_id=13152,"en-US,en;q=0.9,fr;q=0.8",13152,219400229,,1836,association,,apple,apple,,,,,foobly,,,,,,,,,,
,,,,,survey-text,145,683526,0.0-2.0-6.0-0.11,43,1,11/24/23 19:44,50853196e778b5ff033c04a66adaecea,209.133.103.166,"Mozilla/5.0 (Macintosh; Intel Mac OS X 10_15_7) AppleWebKit/537.36 (KHTML, like Gecko) Chrome/119.0.0.0 Safari/537.36",Macintosh,Chrome,119.0.0.0,OS X,10_15_7,https://dgbhklbplk.cognition.run/?sona_id=13152,"en-US,en;q=0.9,fr;q=0.8",13152,219400229,,3026,association,,saw,saw,,,,,geck,,,,,,,,,,
,,,,,instructions,146,695856,0.0-3.0,43,1,11/24/23 19:44,50853196e778b5ff033c04a66adaecea,209.133.103.166,"Mozilla/5.0 (Macintosh; Intel Mac OS X 10_15_7) AppleWebKit/537.36 (KHTML, like Gecko) Chrome/119.0.0.0 Safari/537.36",Macintosh,Chrome,119.0.0.0,OS X,10_15_7,https://dgbhklbplk.cognition.run/?sona_id=13152,"en-US,en;q=0.9,fr;q=0.8",13152,219400229,"[{""page_index"":0,""viewing_time"":3007},{""page_index"":1,""viewing_time"":7118},{""page_index"":2,""viewing_time"":2199}]",12325,instructions,,,,,,,,,,,,,,,,,,
,,,,,html-keyboard-response,147,696363,0.0-4.0-0.0,43,1,11/24/23 19:44,50853196e778b5ff033c04a66adaecea,209.133.103.166,"Mozilla/5.0 (Macintosh; Intel Mac OS X 10_15_7) AppleWebKit/537.36 (KHTML, like Gecko) Chrome/119.0.0.0 Safari/537.36",Macintosh,Chrome,119.0.0.0,OS X,10_15_7,https://dgbhklbplk.cognition.run/?sona_id=13152,"en-US,en;q=0.9,fr;q=0.8",13152,219400229,,null,fixation,<span style= 'font-size:170%'>+</span>,null,null,,,,,,,,,,,,,,,
,,,,,image-keyboard-response,148,696873,0.0-4.0-1.0,43,1,11/24/23 19:44,50853196e778b5ff033c04a66adaecea,209.133.103.166,"Mozilla/5.0 (Macintosh; Intel Mac OS X 10_15_7) AppleWebKit/537.36 (KHTML, like Gecko) Chrome/119.0.0.0 Safari/537.36",Macintosh,Chrome,119.0.0.0,OS X,10_15_7,https://dgbhklbplk.cognition.run/?sona_id=13152,"en-US,en;q=0.9,fr;q=0.8",13152,219400229,,null,,horseapple.png,null,null,,,,,,,,,,,,,,,
,,,,,image-keyboard-response,149,697188,0.0-4.0-2.0,43,1,11/24/23 19:44,50853196e778b5ff033c04a66adaecea,209.133.103.166,"Mozilla/5.0 (Macintosh; Intel Mac OS X 10_15_7) AppleWebKit/537.36 (KHTML, like Gecko) Chrome/119.0.0.0 Safari/537.36",Macintosh,Chrome,119.0.0.0,OS X,10_15_7,https://dgbhklbplk.cognition.run/?sona_id=13152,"en-US,en;q=0.9,fr;q=0.8",13152,219400229,,null,,horseapple.png,null,null,,,,,,,,,,,,,,,
,,,,,image-keyboard-response,150,698723,0.0-4.0-3.0,43,1,11/24/23 19:44,50853196e778b5ff033c04a66adaecea,209.133.103.166,"Mozilla/5.0 (Macintosh; Intel Mac OS X 10_15_7) AppleWebKit/537.36 (KHTML, like Gecko) Chrome/119.0.0.0 Safari/537.36",Macintosh,Chrome,119.0.0.0,OS X,10_15_7,https://dgbhklbplk.cognition.run/?sona_id=13152,"en-US,en;q=0.9,fr;q=0.8",13152,219400229,,1527,target,horseapple.png,l,l,,,,,,apple,novel,nuppical,novel,novel,L,practice,TRUE,TRUE,
,,,,,html-keyboard-response,151,699732,0.0-4.0-4.0,43,1,11/24/23 19:44,50853196e778b5ff033c04a66adaecea,209.133.103.166,"Mozilla/5.0 (Macintosh; Intel Mac OS X 10_15_7) AppleWebKit/537.36 (KHTML, like Gecko) Chrome/119.0.0.0 Safari/537.36",Macintosh,Chrome,119.0.0.0,OS X,10_15_7,https://dgbhklbplk.cognition.run/?sona_id=13152,"en-US,en;q=0.9,fr;q=0.8",13152,219400229,,null,,Correct but <b>too slow</b>! <br><br> Please try to respond faster.,null,null,,,,,,,,,,,,,,,
,,,,,html-keyboard-response,152,700242,0.0-4.0-0.1,43,1,11/24/23 19:44,50853196e778b5ff033c04a66adaecea,209.133.103.166,"Mozilla/5.0 (Macintosh; Intel Mac OS X 10_15_7) AppleWebKit/537.36 (KHTML, like Gecko) Chrome/119.0.0.0 Safari/537.36",Macintosh,Chrome,119.0.0.0,OS X,10_15_7,https://dgbhklbplk.cognition.run/?sona_id=13152,"en-US,en;q=0.9,fr;q=0.8",13152,219400229,,null,fixation,<span style= 'font-size:170%'>+</span>,null,null,,,,,,,,,,,,,,,
,,,,,image-keyboard-response,153,700753,0.0-4.0-1.1,43,1,11/24/23 19:44,50853196e778b5ff033c04a66adaecea,209.133.103.166,"Mozilla/5.0 (Macintosh; Intel Mac OS X 10_15_7) AppleWebKit/537.36 (KHTML, like Gecko) Chrome/119.0.0.0 Safari/537.36",Macintosh,Chrome,119.0.0.0,OS X,10_15_7,https://dgbhklbplk.cognition.run/?sona_id=13152,"en-US,en;q=0.9,fr;q=0.8",13152,219400229,,null,,applehorse.png,null,null,,,,,,,,,,,,,,,
,,,,,image-keyboard-response,154,701067,0.0-4.0-2.1,43,1,11/24/23 19:44,50853196e778b5ff033c04a66adaecea,209.133.103.166,"Mozilla/5.0 (Macintosh; Intel Mac OS X 10_15_7) AppleWebKit/537.36 (KHTML, like Gecko) Chrome/119.0.0.0 Safari/537.36",Macintosh,Chrome,119.0.0.0,OS X,10_15_7,https://dgbhklbplk.cognition.run/?sona_id=13152,"en-US,en;q=0.9,fr;q=0.8",13152,219400229,,null,,applehorse.png,null,null,,,,,,,,,,,,,,,
,,,,,image-keyboard-response,155,701927,0.0-4.0-3.1,43,1,11/24/23 19:44,50853196e778b5ff033c04a66adaecea,209.133.103.166,"Mozilla/5.0 (Macintosh; Intel Mac OS X 10_15_7) AppleWebKit/537.36 (KHTML, like Gecko) Chrome/119.0.0.0 Safari/537.36",Macintosh,Chrome,119.0.0.0,OS X,10_15_7,https://dgbhklbplk.cognition.run/?sona_id=13152,"en-US,en;q=0.9,fr;q=0.8",13152,219400229,,852,target,applehorse.png,a,a,,,,,,apple,novel,boff,novel,novel,A,practice,TRUE,TRUE,
,,,,,html-keyboard-response,156,702937,0.0-4.0-4.1,43,1,11/24/23 19:44,50853196e778b5ff033c04a66adaecea,209.133.103.166,"Mozilla/5.0 (Macintosh; Intel Mac OS X 10_15_7) AppleWebKit/537.36 (KHTML, like Gecko) Chrome/119.0.0.0 Safari/537.36",Macintosh,Chrome,119.0.0.0,OS X,10_15_7,https://dgbhklbplk.cognition.run/?sona_id=13152,"en-US,en;q=0.9,fr;q=0.8",13152,219400229,,null,,Correct but <b>too slow</b>! <br><br> Please try to respond faster.,null,null,,,,,,,,,,,,,,,
,,,,,html-keyboard-response,157,703445,0.0-4.0-0.2,43,1,11/24/23 19:44,50853196e778b5ff033c04a66adaecea,209.133.103.166,"Mozilla/5.0 (Macintosh; Intel Mac OS X 10_15_7) AppleWebKit/537.36 (KHTML, like Gecko) Chrome/119.0.0.0 Safari/537.36",Macintosh,Chrome,119.0.0.0,OS X,10_15_7,https://dgbhklbplk.cognition.run/?sona_id=13152,"en-US,en;q=0.9,fr;q=0.8",13152,219400229,,null,fixation,<span style= 'font-size:170%'>+</span>,null,null,,,,,,,,,,,,,,,
,,,,,image-keyboard-response,158,703956,0.0-4.0-1.2,43,1,11/24/23 19:44,50853196e778b5ff033c04a66adaecea,209.133.103.166,"Mozilla/5.0 (Macintosh; Intel Mac OS X 10_15_7) AppleWebKit/537.36 (KHTML, like Gecko) Chrome/119.0.0.0 Safari/537.36",Macintosh,Chrome,119.0.0.0,OS X,10_15_7,https://dgbhklbplk.cognition.run/?sona_id=13152,"en-US,en;q=0.9,fr;q=0.8",13152,219400229,,null,,applehorse.png,null,null,,,,,,,,,,,,,,,
,,,,,image-keyboard-response,159,704265,0.0-4.0-2.2,43,1,11/24/23 19:44,50853196e778b5ff033c04a66adaecea,209.133.103.166,"Mozilla/5.0 (Macintosh; Intel Mac OS X 10_15_7) AppleWebKit/537.36 (KHTML, like Gecko) Chrome/119.0.0.0 Safari/537.36",Macintosh,Chrome,119.0.0.0,OS X,10_15_7,https://dgbhklbplk.cognition.run/?sona_id=13152,"en-US,en;q=0.9,fr;q=0.8",13152,219400229,,null,,applehorse.png,null,null,,,,,,,,,,,,,,,
,,,,,image-keyboard-response,160,704815,0.0-4.0-3.2,43,1,11/24/23 19:44,50853196e778b5ff033c04a66adaecea,209.133.103.166,"Mozilla/5.0 (Macintosh; Intel Mac OS X 10_15_7) AppleWebKit/537.36 (KHTML, like Gecko) Chrome/119.0.0.0 Safari/537.36",Macintosh,Chrome,119.0.0.0,OS X,10_15_7,https://dgbhklbplk.cognition.run/?sona_id=13152,"en-US,en;q=0.9,fr;q=0.8",13152,219400229,,543,target,applehorse.png,l,l,,,,,,horse,novel,nuppical,novel,novel,L,practice,TRUE,TRUE,
,,,,,html-keyboard-response,161,705826,0.0-4.0-4.2,43,1,11/24/23 19:44,50853196e778b5ff033c04a66adaecea,209.133.103.166,"Mozilla/5.0 (Macintosh; Intel Mac OS X 10_15_7) AppleWebKit/537.36 (KHTML, like Gecko) Chrome/119.0.0.0 Safari/537.36",Macintosh,Chrome,119.0.0.0,OS X,10_15_7,https://dgbhklbplk.cognition.run/?sona_id=13152,"en-US,en;q=0.9,fr;q=0.8",13152,219400229,,null,,Correct!,null,null,,,,,,,,,,,,,,,
,,,,,html-keyboard-response,162,706338,0.0-4.0-0.3,43,1,11/24/23 19:44,50853196e778b5ff033c04a66adaecea,209.133.103.166,"Mozilla/5.0 (Macintosh; Intel Mac OS X 10_15_7) AppleWebKit/537.36 (KHTML, like Gecko) Chrome/119.0.0.0 Safari/537.36",Macintosh,Chrome,119.0.0.0,OS X,10_15_7,https://dgbhklbplk.cognition.run/?sona_id=13152,"en-US,en;q=0.9,fr;q=0.8",13152,219400229,,null,fixation,<span style= 'font-size:170%'>+</span>,null,null,,,,,,,,,,,,,,,
,,,,,image-keyboard-response,163,706848,0.0-4.0-1.3,43,1,11/24/23 19:44,50853196e778b5ff033c04a66adaecea,209.133.103.166,"Mozilla/5.0 (Macintosh; Intel Mac OS X 10_15_7) AppleWebKit/537.36 (KHTML, like Gecko) Chrome/119.0.0.0 Safari/537.36",Macintosh,Chrome,119.0.0.0,OS X,10_15_7,https://dgbhklbplk.cognition.run/?sona_id=13152,"en-US,en;q=0.9,fr;q=0.8",13152,219400229,,null,,applehorse.png,null,null,,,,,,,,,,,,,,,
,,,,,image-keyboard-response,164,707160,0.0-4.0-2.3,43,1,11/24/23 19:44,50853196e778b5ff033c04a66adaecea,209.133.103.166,"Mozilla/5.0 (Macintosh; Intel Mac OS X 10_15_7) AppleWebKit/537.36 (KHTML, like Gecko) Chrome/119.0.0.0 Safari/537.36",Macintosh,Chrome,119.0.0.0,OS X,10_15_7,https://dgbhklbplk.cognition.run/?sona_id=13152,"en-US,en;q=0.9,fr;q=0.8",13152,219400229,,null,,applehorse.png,null,null,,,,,,,,,,,,,,,
,,,,,image-keyboard-response,165,707782,0.0-4.0-3.3,43,1,11/24/23 19:44,50853196e778b5ff033c04a66adaecea,209.133.103.166,"Mozilla/5.0 (Macintosh; Intel Mac OS X 10_15_7) AppleWebKit/537.36 (KHTML, like Gecko) Chrome/119.0.0.0 Safari/537.36",Macintosh,Chrome,119.0.0.0,OS X,10_15_7,https://dgbhklbplk.cognition.run/?sona_id=13152,"en-US,en;q=0.9,fr;q=0.8",13152,219400229,,615,target,applehorse.png,l,l,,,,,,horse,novel,nuppical,novel,novel,L,practice,TRUE,TRUE,
,,,,,html-keyboard-response,166,708793,0.0-4.0-4.3,43,1,11/24/23 19:44,50853196e778b5ff033c04a66adaecea,209.133.103.166,"Mozilla/5.0 (Macintosh; Intel Mac OS X 10_15_7) AppleWebKit/537.36 (KHTML, like Gecko) Chrome/119.0.0.0 Safari/537.36",Macintosh,Chrome,119.0.0.0,OS X,10_15_7,https://dgbhklbplk.cognition.run/?sona_id=13152,"en-US,en;q=0.9,fr;q=0.8",13152,219400229,,null,,Correct!,null,null,,,,,,,,,,,,,,,
,,,,,html-keyboard-response,167,709305,0.0-4.0-0.4,43,1,11/24/23 19:44,50853196e778b5ff033c04a66adaecea,209.133.103.166,"Mozilla/5.0 (Macintosh; Intel Mac OS X 10_15_7) AppleWebKit/537.36 (KHTML, like Gecko) Chrome/119.0.0.0 Safari/537.36",Macintosh,Chrome,119.0.0.0,OS X,10_15_7,https://dgbhklbplk.cognition.run/?sona_id=13152,"en-US,en;q=0.9,fr;q=0.8",13152,219400229,,null,fixation,<span style= 'font-size:170%'>+</span>,null,null,,,,,,,,,,,,,,,
,,,,,image-keyboard-response,168,709816,0.0-4.0-1.4,43,1,11/24/23 19:44,50853196e778b5ff033c04a66adaecea,209.133.103.166,"Mozilla/5.0 (Macintosh; Intel Mac OS X 10_15_7) AppleWebKit/537.36 (KHTML, like Gecko) Chrome/119.0.0.0 Safari/537.36",Macintosh,Chrome,119.0.0.0,OS X,10_15_7,https://dgbhklbplk.cognition.run/?sona_id=13152,"en-US,en;q=0.9,fr;q=0.8",13152,219400229,,null,,horseapple.png,null,null,,,,,,,,,,,,,,,
,,,,,image-keyboard-response,169,710128,0.0-4.0-2.4,43,1,11/24/23 19:44,50853196e778b5ff033c04a66adaecea,209.133.103.166,"Mozilla/5.0 (Macintosh; Intel Mac OS X 10_15_7) AppleWebKit/537.36 (KHTML, like Gecko) Chrome/119.0.0.0 Safari/537.36",Macintosh,Chrome,119.0.0.0,OS X,10_15_7,https://dgbhklbplk.cognition.run/?sona_id=13152,"en-US,en;q=0.9,fr;q=0.8",13152,219400229,,null,,horseapple.png,null,null,,,,,,,,,,,,,,,
,,,,,image-keyboard-response,170,710668,0.0-4.0-3.4,43,1,11/24/23 19:44,50853196e778b5ff033c04a66adaecea,209.133.103.166,"Mozilla/5.0 (Macintosh; Intel Mac OS X 10_15_7) AppleWebKit/537.36 (KHTML, like Gecko) Chrome/119.0.0.0 Safari/537.36",Macintosh,Chrome,119.0.0.0,OS X,10_15_7,https://dgbhklbplk.cognition.run/?sona_id=13152,"en-US,en;q=0.9,fr;q=0.8",13152,219400229,,533,target,horseapple.png,l,l,,,,,,apple,novel,nuppical,novel,novel,L,practice,TRUE,TRUE,
,,,,,html-keyboard-response,171,711679,0.0-4.0-4.4,43,1,11/24/23 19:44,50853196e778b5ff033c04a66adaecea,209.133.103.166,"Mozilla/5.0 (Macintosh; Intel Mac OS X 10_15_7) AppleWebKit/537.36 (KHTML, like Gecko) Chrome/119.0.0.0 Safari/537.36",Macintosh,Chrome,119.0.0.0,OS X,10_15_7,https://dgbhklbplk.cognition.run/?sona_id=13152,"en-US,en;q=0.9,fr;q=0.8",13152,219400229,,null,,Correct!,null,null,,,,,,,,,,,,,,,
,,,,,html-keyboard-response,172,712192,0.0-4.0-0.5,43,1,11/24/23 19:44,50853196e778b5ff033c04a66adaecea,209.133.103.166,"Mozilla/5.0 (Macintosh; Intel Mac OS X 10_15_7) AppleWebKit/537.36 (KHTML, like Gecko) Chrome/119.0.0.0 Safari/537.36",Macintosh,Chrome,119.0.0.0,OS X,10_15_7,https://dgbhklbplk.cognition.run/?sona_id=13152,"en-US,en;q=0.9,fr;q=0.8",13152,219400229,,null,fixation,<span style= 'font-size:170%'>+</span>,null,null,,,,,,,,,,,,,,,
,,,,,image-keyboard-response,173,712704,0.0-4.0-1.5,43,1,11/24/23 19:44,50853196e778b5ff033c04a66adaecea,209.133.103.166,"Mozilla/5.0 (Macintosh; Intel Mac OS X 10_15_7) AppleWebKit/537.36 (KHTML, like Gecko) Chrome/119.0.0.0 Safari/537.36",Macintosh,Chrome,119.0.0.0,OS X,10_15_7,https://dgbhklbplk.cognition.run/?sona_id=13152,"en-US,en;q=0.9,fr;q=0.8",13152,219400229,,null,,applehorse.png,null,null,,,,,,,,,,,,,,,
,,,,,image-keyboard-response,174,713015,0.0-4.0-2.5,43,1,11/24/23 19:44,50853196e778b5ff033c04a66adaecea,209.133.103.166,"Mozilla/5.0 (Macintosh; Intel Mac OS X 10_15_7) AppleWebKit/537.36 (KHTML, like Gecko) Chrome/119.0.0.0 Safari/537.36",Macintosh,Chrome,119.0.0.0,OS X,10_15_7,https://dgbhklbplk.cognition.run/?sona_id=13152,"en-US,en;q=0.9,fr;q=0.8",13152,219400229,,null,,applehorse.png,null,null,,,,,,,,,,,,,,,
,,,,,image-keyboard-response,175,713408,0.0-4.0-3.5,43,1,11/24/23 19:44,50853196e778b5ff033c04a66adaecea,209.133.103.166,"Mozilla/5.0 (Macintosh; Intel Mac OS X 10_15_7) AppleWebKit/537.36 (KHTML, like Gecko) Chrome/119.0.0.0 Safari/537.36",Macintosh,Chrome,119.0.0.0,OS X,10_15_7,https://dgbhklbplk.cognition.run/?sona_id=13152,"en-US,en;q=0.9,fr;q=0.8",13152,219400229,,386,target,applehorse.png,l,l,,,,,,horse,novel,boff,novel,novel,L,practice,TRUE,TRUE,
,,,,,html-keyboard-response,176,714420,0.0-4.0-4.5,43,1,11/24/23 19:44,50853196e778b5ff033c04a66adaecea,209.133.103.166,"Mozilla/5.0 (Macintosh; Intel Mac OS X 10_15_7) AppleWebKit/537.36 (KHTML, like Gecko) Chrome/119.0.0.0 Safari/537.36",Macintosh,Chrome,119.0.0.0,OS X,10_15_7,https://dgbhklbplk.cognition.run/?sona_id=13152,"en-US,en;q=0.9,fr;q=0.8",13152,219400229,,null,,Correct!,null,null,,,,,,,,,,,,,,,
,,,,,html-keyboard-response,177,714931,0.0-4.0-0.6,43,1,11/24/23 19:44,50853196e778b5ff033c04a66adaecea,209.133.103.166,"Mozilla/5.0 (Macintosh; Intel Mac OS X 10_15_7) AppleWebKit/537.36 (KHTML, like Gecko) Chrome/119.0.0.0 Safari/537.36",Macintosh,Chrome,119.0.0.0,OS X,10_15_7,https://dgbhklbplk.cognition.run/?sona_id=13152,"en-US,en;q=0.9,fr;q=0.8",13152,219400229,,null,fixation,<span style= 'font-size:170%'>+</span>,null,null,,,,,,,,,,,,,,,
,,,,,image-keyboard-response,178,715445,0.0-4.0-1.6,43,1,11/24/23 19:44,50853196e778b5ff033c04a66adaecea,209.133.103.166,"Mozilla/5.0 (Macintosh; Intel Mac OS X 10_15_7) AppleWebKit/537.36 (KHTML, like Gecko) Chrome/119.0.0.0 Safari/537.36",Macintosh,Chrome,119.0.0.0,OS X,10_15_7,https://dgbhklbplk.cognition.run/?sona_id=13152,"en-US,en;q=0.9,fr;q=0.8",13152,219400229,,null,,applehorse.png,null,null,,,,,,,,,,,,,,,
,,,,,image-keyboard-response,179,715758,0.0-4.0-2.6,43,1,11/24/23 19:44,50853196e778b5ff033c04a66adaecea,209.133.103.166,"Mozilla/5.0 (Macintosh; Intel Mac OS X 10_15_7) AppleWebKit/537.36 (KHTML, like Gecko) Chrome/119.0.0.0 Safari/537.36",Macintosh,Chrome,119.0.0.0,OS X,10_15_7,https://dgbhklbplk.cognition.run/?sona_id=13152,"en-US,en;q=0.9,fr;q=0.8",13152,219400229,,null,,applehorse.png,null,null,,,,,,,,,,,,,,,
,,,,,image-keyboard-response,180,716219,0.0-4.0-3.6,43,1,11/24/23 19:44,50853196e778b5ff033c04a66adaecea,209.133.103.166,"Mozilla/5.0 (Macintosh; Intel Mac OS X 10_15_7) AppleWebKit/537.36 (KHTML, like Gecko) Chrome/119.0.0.0 Safari/537.36",Macintosh,Chrome,119.0.0.0,OS X,10_15_7,https://dgbhklbplk.cognition.run/?sona_id=13152,"en-US,en;q=0.9,fr;q=0.8",13152,219400229,,452,target,applehorse.png,l,l,,,,,,horse,novel,boff,novel,novel,L,practice,TRUE,TRUE,
,,,,,html-keyboard-response,181,717227,0.0-4.0-4.6,43,1,11/24/23 19:44,50853196e778b5ff033c04a66adaecea,209.133.103.166,"Mozilla/5.0 (Macintosh; Intel Mac OS X 10_15_7) AppleWebKit/537.36 (KHTML, like Gecko) Chrome/119.0.0.0 Safari/537.36",Macintosh,Chrome,119.0.0.0,OS X,10_15_7,https://dgbhklbplk.cognition.run/?sona_id=13152,"en-US,en;q=0.9,fr;q=0.8",13152,219400229,,null,,Correct!,null,null,,,,,,,,,,,,,,,
,,,,,html-keyboard-response,182,717738,0.0-4.0-0.7,43,1,11/24/23 19:44,50853196e778b5ff033c04a66adaecea,209.133.103.166,"Mozilla/5.0 (Macintosh; Intel Mac OS X 10_15_7) AppleWebKit/537.36 (KHTML, like Gecko) Chrome/119.0.0.0 Safari/537.36",Macintosh,Chrome,119.0.0.0,OS X,10_15_7,https://dgbhklbplk.cognition.run/?sona_id=13152,"en-US,en;q=0.9,fr;q=0.8",13152,219400229,,null,fixation,<span style= 'font-size:170%'>+</span>,null,null,,,,,,,,,,,,,,,
,,,,,image-keyboard-response,183,718250,0.0-4.0-1.7,43,1,11/24/23 19:44,50853196e778b5ff033c04a66adaecea,209.133.103.166,"Mozilla/5.0 (Macintosh; Intel Mac OS X 10_15_7) AppleWebKit/537.36 (KHTML, like Gecko) Chrome/119.0.0.0 Safari/537.36",Macintosh,Chrome,119.0.0.0,OS X,10_15_7,https://dgbhklbplk.cognition.run/?sona_id=13152,"en-US,en;q=0.9,fr;q=0.8",13152,219400229,,null,,applehorse.png,null,null,,,,,,,,,,,,,,,
,,,,,image-keyboard-response,184,718563,0.0-4.0-2.7,43,1,11/24/23 19:44,50853196e778b5ff033c04a66adaecea,209.133.103.166,"Mozilla/5.0 (Macintosh; Intel Mac OS X 10_15_7) AppleWebKit/537.36 (KHTML, like Gecko) Chrome/119.0.0.0 Safari/537.36",Macintosh,Chrome,119.0.0.0,OS X,10_15_7,https://dgbhklbplk.cognition.run/?sona_id=13152,"en-US,en;q=0.9,fr;q=0.8",13152,219400229,,null,,applehorse.png,null,null,,,,,,,,,,,,,,,
,,,,,image-keyboard-response,185,718914,0.0-4.0-3.7,43,1,11/24/23 19:44,50853196e778b5ff033c04a66adaecea,209.133.103.166,"Mozilla/5.0 (Macintosh; Intel Mac OS X 10_15_7) AppleWebKit/537.36 (KHTML, like Gecko) Chrome/119.0.0.0 Safari/537.36",Macintosh,Chrome,119.0.0.0,OS X,10_15_7,https://dgbhklbplk.cognition.run/?sona_id=13152,"en-US,en;q=0.9,fr;q=0.8",13152,219400229,,344,target,applehorse.png,a,a,,,,,,apple,novel,boff,novel,novel,A,practice,TRUE,TRUE,
,,,,,html-keyboard-response,186,719924,0.0-4.0-4.7,43,1,11/24/23 19:44,50853196e778b5ff033c04a66adaecea,209.133.103.166,"Mozilla/5.0 (Macintosh; Intel Mac OS X 10_15_7) AppleWebKit/537.36 (KHTML, like Gecko) Chrome/119.0.0.0 Safari/537.36",Macintosh,Chrome,119.0.0.0,OS X,10_15_7,https://dgbhklbplk.cognition.run/?sona_id=13152,"en-US,en;q=0.9,fr;q=0.8",13152,219400229,,null,,Correct!,null,null,,,,,,,,,,,,,,,
,,,,,html-keyboard-response,187,720435,0.0-5.0-0.0-0.0,43,1,11/24/23 19:44,50853196e778b5ff033c04a66adaecea,209.133.103.166,"Mozilla/5.0 (Macintosh; Intel Mac OS X 10_15_7) AppleWebKit/537.36 (KHTML, like Gecko) Chrome/119.0.0.0 Safari/537.36",Macintosh,Chrome,119.0.0.0,OS X,10_15_7,https://dgbhklbplk.cognition.run/?sona_id=13152,"en-US,en;q=0.9,fr;q=0.8",13152,219400229,,null,fixation,<span style= 'font-size:170%'>+</span>,null,null,,,,,,,,,,,,,,,
,,,,,image-keyboard-response,188,720948,0.0-5.0-0.0-1.0,43,1,11/24/23 19:44,50853196e778b5ff033c04a66adaecea,209.133.103.166,"Mozilla/5.0 (Macintosh; Intel Mac OS X 10_15_7) AppleWebKit/537.36 (KHTML, like Gecko) Chrome/119.0.0.0 Safari/537.36",Macintosh,Chrome,119.0.0.0,OS X,10_15_7,https://dgbhklbplk.cognition.run/?sona_id=13152,"en-US,en;q=0.9,fr;q=0.8",13152,219400229,,null,,horseapple.png,null,null,,,,,,,,,,,,,,,
,,,,,image-keyboard-response,189,721260,0.0-5.0-0.0-2.0,43,1,11/24/23 19:44,50853196e778b5ff033c04a66adaecea,209.133.103.166,"Mozilla/5.0 (Macintosh; Intel Mac OS X 10_15_7) AppleWebKit/537.36 (KHTML, like Gecko) Chrome/119.0.0.0 Safari/537.36",Macintosh,Chrome,119.0.0.0,OS X,10_15_7,https://dgbhklbplk.cognition.run/?sona_id=13152,"en-US,en;q=0.9,fr;q=0.8",13152,219400229,,null,,horseapple.png,null,null,,,,,,,,,,,,,,,
,,,,,image-keyboard-response,190,721921,0.0-5.0-0.0-3.0,43,1,11/24/23 19:44,50853196e778b5ff033c04a66adaecea,209.133.103.166,"Mozilla/5.0 (Macintosh; Intel Mac OS X 10_15_7) AppleWebKit/537.36 (KHTML, like Gecko) Chrome/119.0.0.0 Safari/537.36",Macintosh,Chrome,119.0.0.0,OS X,10_15_7,https://dgbhklbplk.cognition.run/?sona_id=13152,"en-US,en;q=0.9,fr;q=0.8",13152,219400229,,653,target,horseapple.png,l,l,,,,,,apple,direct,foobly,related,novel,L,1,TRUE,TRUE,
,,,,,html-keyboard-response,191,722429,0.0-5.0-0.0-0.1,43,1,11/24/23 19:44,50853196e778b5ff033c04a66adaecea,209.133.103.166,"Mozilla/5.0 (Macintosh; Intel Mac OS X 10_15_7) AppleWebKit/537.36 (KHTML, like Gecko) Chrome/119.0.0.0 Safari/537.36",Macintosh,Chrome,119.0.0.0,OS X,10_15_7,https://dgbhklbplk.cognition.run/?sona_id=13152,"en-US,en;q=0.9,fr;q=0.8",13152,219400229,,null,fixation,<span style= 'font-size:170%'>+</span>,null,null,,,,,,,,,,,,,,,
,,,,,image-keyboard-response,192,722942,0.0-5.0-0.0-1.1,43,1,11/24/23 19:44,50853196e778b5ff033c04a66adaecea,209.133.103.166,"Mozilla/5.0 (Macintosh; Intel Mac OS X 10_15_7) AppleWebKit/537.36 (KHTML, like Gecko) Chrome/119.0.0.0 Safari/537.36",Macintosh,Chrome,119.0.0.0,OS X,10_15_7,https://dgbhklbplk.cognition.run/?sona_id=13152,"en-US,en;q=0.9,fr;q=0.8",13152,219400229,,null,,horseapple.png,null,null,,,,,,,,,,,,,,,
,,,,,image-keyboard-response,193,723255,0.0-5.0-0.0-2.1,43,1,11/24/23 19:44,50853196e778b5ff033c04a66adaecea,209.133.103.166,"Mozilla/5.0 (Macintosh; Intel Mac OS X 10_15_7) AppleWebKit/537.36 (KHTML, like Gecko) Chrome/119.0.0.0 Safari/537.36",Macintosh,Chrome,119.0.0.0,OS X,10_15_7,https://dgbhklbplk.cognition.run/?sona_id=13152,"en-US,en;q=0.9,fr;q=0.8",13152,219400229,,null,,horseapple.png,null,null,,,,,,,,,,,,,,,
,,,,,image-keyboard-response,194,723860,0.0-5.0-0.0-3.1,43,1,11/24/23 19:44,50853196e778b5ff033c04a66adaecea,209.133.103.166,"Mozilla/5.0 (Macintosh; Intel Mac OS X 10_15_7) AppleWebKit/537.36 (KHTML, like Gecko) Chrome/119.0.0.0 Safari/537.36",Macintosh,Chrome,119.0.0.0,OS X,10_15_7,https://dgbhklbplk.cognition.run/?sona_id=13152,"en-US,en;q=0.9,fr;q=0.8",13152,219400229,,596,target,horseapple.png,a,a,,,,,,horse,direct,foobly,unrelated,novel,A,1,TRUE,TRUE,
,,,,,html-keyboard-response,195,724365,0.0-5.0-0.0-0.2,43,1,11/24/23 19:44,50853196e778b5ff033c04a66adaecea,209.133.103.166,"Mozilla/5.0 (Macintosh; Intel Mac OS X 10_15_7) AppleWebKit/537.36 (KHTML, like Gecko) Chrome/119.0.0.0 Safari/537.36",Macintosh,Chrome,119.0.0.0,OS X,10_15_7,https://dgbhklbplk.cognition.run/?sona_id=13152,"en-US,en;q=0.9,fr;q=0.8",13152,219400229,,null,fixation,<span style= 'font-size:170%'>+</span>,null,null,,,,,,,,,,,,,,,
,,,,,image-keyboard-response,196,724877,0.0-5.0-0.0-1.2,43,1,11/24/23 19:44,50853196e778b5ff033c04a66adaecea,209.133.103.166,"Mozilla/5.0 (Macintosh; Intel Mac OS X 10_15_7) AppleWebKit/537.36 (KHTML, like Gecko) Chrome/119.0.0.0 Safari/537.36",Macintosh,Chrome,119.0.0.0,OS X,10_15_7,https://dgbhklbplk.cognition.run/?sona_id=13152,"en-US,en;q=0.9,fr;q=0.8",13152,219400229,,null,,horseapple.png,null,null,,,,,,,,,,,,,,,
,,,,,image-keyboard-response,197,725189,0.0-5.0-0.0-2.2,43,1,11/24/23 19:44,50853196e778b5ff033c04a66adaecea,209.133.103.166,"Mozilla/5.0 (Macintosh; Intel Mac OS X 10_15_7) AppleWebKit/537.36 (KHTML, like Gecko) Chrome/119.0.0.0 Safari/537.36",Macintosh,Chrome,119.0.0.0,OS X,10_15_7,https://dgbhklbplk.cognition.run/?sona_id=13152,"en-US,en;q=0.9,fr;q=0.8",13152,219400229,,null,,horseapple.png,null,null,,,,,,,,,,,,,,,
,,,,,image-keyboard-response,198,725813,0.0-5.0-0.0-3.2,43,1,11/24/23 19:44,50853196e778b5ff033c04a66adaecea,209.133.103.166,"Mozilla/5.0 (Macintosh; Intel Mac OS X 10_15_7) AppleWebKit/537.36 (KHTML, like Gecko) Chrome/119.0.0.0 Safari/537.36",Macintosh,Chrome,119.0.0.0,OS X,10_15_7,https://dgbhklbplk.cognition.run/?sona_id=13152,"en-US,en;q=0.9,fr;q=0.8",13152,219400229,,616,target,horseapple.png,a,a,,,,,,horse,direct,foobly,unrelated,novel,A,1,TRUE,TRUE,
,,,,,html-keyboard-response,199,726322,0.0-5.0-0.0-0.3,43,1,11/24/23 19:44,50853196e778b5ff033c04a66adaecea,209.133.103.166,"Mozilla/5.0 (Macintosh; Intel Mac OS X 10_15_7) AppleWebKit/537.36 (KHTML, like Gecko) Chrome/119.0.0.0 Safari/537.36",Macintosh,Chrome,119.0.0.0,OS X,10_15_7,https://dgbhklbplk.cognition.run/?sona_id=13152,"en-US,en;q=0.9,fr;q=0.8",13152,219400229,,null,fixation,<span style= 'font-size:170%'>+</span>,null,null,,,,,,,,,,,,,,,
,,,,,image-keyboard-response,200,726833,0.0-5.0-0.0-1.3,43,1,11/24/23 19:44,50853196e778b5ff033c04a66adaecea,209.133.103.166,"Mozilla/5.0 (Macintosh; Intel Mac OS X 10_15_7) AppleWebKit/537.36 (KHTML, like Gecko) Chrome/119.0.0.0 Safari/537.36",Macintosh,Chrome,119.0.0.0,OS X,10_15_7,https://dgbhklbplk.cognition.run/?sona_id=13152,"en-US,en;q=0.9,fr;q=0.8",13152,219400229,,null,,horseapple.png,null,null,,,,,,,,,,,,,,,
,,,,,image-keyboard-response,201,727147,0.0-5.0-0.0-2.3,43,1,11/24/23 19:44,50853196e778b5ff033c04a66adaecea,209.133.103.166,"Mozilla/5.0 (Macintosh; Intel Mac OS X 10_15_7) AppleWebKit/537.36 (KHTML, like Gecko) Chrome/119.0.0.0 Safari/537.36",Macintosh,Chrome,119.0.0.0,OS X,10_15_7,https://dgbhklbplk.cognition.run/?sona_id=13152,"en-US,en;q=0.9,fr;q=0.8",13152,219400229,,null,,horseapple.png,null,null,,,,,,,,,,,,,,,
,,,,,image-keyboard-response,202,727641,0.0-5.0-0.0-3.3,43,1,11/24/23 19:44,50853196e778b5ff033c04a66adaecea,209.133.103.166,"Mozilla/5.0 (Macintosh; Intel Mac OS X 10_15_7) AppleWebKit/537.36 (KHTML, like Gecko) Chrome/119.0.0.0 Safari/537.36",Macintosh,Chrome,119.0.0.0,OS X,10_15_7,https://dgbhklbplk.cognition.run/?sona_id=13152,"en-US,en;q=0.9,fr;q=0.8",13152,219400229,,484,target,horseapple.png,a,a,,,,,,horse,direct,dodish,related,novel,A,1,TRUE,TRUE,
